tstm,aX,aY,aZ,meanX,meanY,meanZ,stdX,stdY,stdZ,meanDiffX,meanDiffY,meanDiffZ,stdDiffX,stdDiffY,stdDiffZ,HardAccel,HardBrake,LaneChanL,LaneChanR,ui8LaneHole
7113,-709,2033,6561,-621.100,508.371,7911.314,591.365,838.730,613.971,99.286,446.571,-196.997,-71.831,-8.539,219.100,0,0,0,0,0
7213,-1827,2238,7171,-634.243,556.000,7904.386,607.574,840.931,619.525,-131.429,476.286,-69.287,162.091,22.012,55.536,0,0,0,0,0
7313,619,1779,7737,-620.300,594.214,7897.043,624.733,834.838,618.418,139.429,382.143,-73.428,171.589,-60.934,-11.067,0,0,0,0,0
7413,-285,2050,7517,-614.900,633.343,7879.100,625.973,837.959,610.918,54.000,391.285,-179.429,12.400,31.213,-75.000,0,0,0,0,0
7513,847,1751,7205,-586.543,664.514,7856.514,646.266,838.371,606.179,283.572,311.714,-225.859,202.931,4.117,-47.392,0,0,0,0,0
7613,311,1448,7774,-565.571,688.957,7844.271,651.213,835.911,599.025,209.714,244.429,-122.427,49.477,-24.595,-71.537,0,0,0,0,0
7713,-147,1874,7735,-563.057,718.257,7844.900,652.484,840.975,598.887,25.143,293.000,6.284,12.703,50.634,-1.381,0,0,0,0,0
7813,446,1738,7915,-538.686,745.243,7842.557,657.836,842.954,598.287,243.714,269.857,-23.428,53.519,19.791,-6.000,0,0,0,0,0
7913,-27,1478,8137,-530.986,769.457,7849.900,660.619,839.302,598.702,77.000,242.143,73.428,27.839,-36.517,4.144,0,0,0,0,0
8013,-142,1407,7551,-521.029,791.686,7835.643,661.154,835.278,593.746,99.572,222.286,-142.568,5.349,-40.240,-49.553,0,0,0,0,0
8113,-31,1623,8240,-514.914,815.414,7840.357,663.674,834.964,595.625,61.143,237.286,47.139,25.196,-3.139,18.788,0,0,0,0,0
8213,77,1738,8539,-500.986,841.629,7853.929,665.716,834.712,600.546,139.286,262.143,135.718,20.421,-2.519,49.207,0,0,0,0,0
8313,-490,1799,8145,-496.471,870.400,7864.786,664.703,832.503,598.838,45.143,287.714,108.569,-10.131,-22.095,-17.082,0,0,0,0,0
8413,-497,1394,8549,-486.414,900.757,7881.800,659.271,812.047,601.112,100.572,303.571,170.142,-54.321,-204.556,22.745,0,0,0,0,0
8513,701,1520,7791,-457.557,924.071,7880.000,666.367,806.042,601.193,288.571,233.143,-17.998,70.959,-60.059,0.804,0,0,0,0,0
8613,1155,396,8350,-429.771,939.471,7885.900,691.984,785.239,603.744,277.857,154.000,58.999,256.169,-208.028,25.518,0,0,0,0,0
8713,-1314,1169,9195,-436.229,956.700,7916.057,698.069,776.810,615.543,-64.572,172.286,301.572,60.853,-84.285,117.990,0,0,0,0,0
8813,692,1533,8177,-417.800,987.171,7918.971,710.472,756.724,616.289,184.286,304.714,29.141,124.034,-200.861,7.452,0,0,0,0,0
8913,463,1151,8989,-408.071,1005.357,7934.900,717.767,745.056,629.194,97.285,181.857,159.287,72.944,-116.678,129.058,0,0,0,0,0
9013,-548,1214,8442,-402.571,1024.243,7937.128,715.194,733.257,630.708,55.000,188.857,22.285,-25.730,-117.991,15.141,0,0,0,0,0
9113,-698,1510,7903,-404.857,1049.557,7933.543,715.878,718.861,630.178,-22.857,253.143,-35.854,6.846,-143.960,-5.300,0,0,0,0,0
9213,-523,2090,7709,-389.486,1080.571,7947.628,701.480,716.244,613.769,153.714,310.143,140.854,-143.986,-26.176,-164.095,0,0,0,0,0
9313,-1552,1841,6660,-393.257,1112.043,7913.586,706.988,700.390,618.141,-37.714,314.714,-340.425,55.086,-158.533,43.721,0,0,0,0,0
9413,-1000,1838,6297,-395.214,1133.271,7878.372,708.474,699.552,638.678,-19.572,212.286,-352.144,14.858,-8.389,205.365,0,0,0,0,0
9513,-1445,2200,5760,-409.171,1160.371,7838.171,719.311,703.595,680.799,-139.571,271.000,-402.002,108.370,40.435,421.213,0,0,0,0,0
9613,-735,2638,6674,-406.786,1196.757,7815.929,717.948,713.146,692.928,23.857,363.857,-222.427,-13.628,95.507,121.292,0,0,0,0,0
9713,-385,2031,7818,-403.929,1227.614,7815.557,717.631,701.753,692.920,28.571,308.571,-3.716,-3.171,-113.922,-0.082,0,0,0,0,0
9813,-323,2266,7473,-406.100,1261.243,7809.143,717.153,694.265,693.982,-21.714,336.285,-64.141,-4.783,-74.882,10.624,0,0,0,0,0
9913,556,3275,6978,-391.529,1298.857,7792.714,726.135,730.098,699.827,145.714,376.144,-164.287,89.818,358.327,58.445,0,0,0,0,0
10013,3314,1876,8496,-341.914,1310.271,7798.872,848.643,732.781,704.078,496.143,114.143,61.572,1225.078,26.832,42.516,0,0,1,0,0
10113,2881,1166,6729,-284.843,1308.757,7779.614,925.640,732.968,714.564,570.714,-15.143,-192.573,769.973,1.870,104.860,0,0,0,0,0
10213,-1977,2315,7959,-289.629,1327.514,7785.800,933.477,741.627,714.216,-47.857,187.571,61.855,78.373,86.589,-3.481,0,0,0,0,0
10313,457,3246,8707,-258.271,1366.286,7806.443,921.082,769.446,719.640,313.571,387.715,206.431,-123.953,278.187,54.241,0,0,0,0,0
10413,2240,2867,6557,-203.614,1401.743,7796.628,953.616,780.517,731.825,546.571,354.570,-98.145,325.338,110.714,121.849,0,0,0,0,0
10513,-467,2643,7466,-180.329,1431.871,7797.514,926.617,787.117,731.387,232.857,301.287,8.857,-269.989,65.995,-4.384,0,0,0,0,0
10613,-1049,1780,7492,-176.143,1450.086,7795.157,922.010,780.179,732.102,41.857,182.142,-23.569,-46.066,-69.374,7.146,0,0,0,0,0
10713,-1423,2076,6541,-182.600,1467.229,7772.214,929.110,780.560,745.753,-64.572,171.428,-229.429,70.995,3.810,136.517,0,0,0,0,0
10813,-1336,2227,7136,-196.886,1488.871,7755.771,938.994,780.323,746.910,-142.857,216.429,-164.429,98.840,-2.372,11.566,0,0,0,0,0
10913,-68,2537,7164,-185.857,1512.829,7733.571,935.904,786.368,741.052,110.286,239.572,-222.002,-30.896,60.447,-58.582,0,0,0,0,0
11013,455,1724,7782,-169.400,1527.143,7725.557,936.899,780.943,737.442,164.572,143.142,-80.142,9.952,-54.248,-36.096,0,0,0,0,0
11113,1748,1683,7212,-138.786,1535.586,7711.857,963.658,779.386,737.947,306.143,84.429,-137.002,267.584,-15.568,5.053,0,0,0,0,0
11213,-1342,3290,9448,-147.686,1577.200,7732.900,971.818,794.044,765.633,-89.000,416.143,210.430,81.601,146.578,276.858,0,0,0,0,0
11313,783,2899,9306,-132.171,1611.657,7760.814,977.864,798.310,786.571,155.143,344.572,279.146,60.464,42.662,209.382,0,0,0,0,0
11413,1423,1589,8414,-102.386,1632.771,7773.100,992.911,777.618,789.954,297.857,211.144,122.856,150.466,-206.923,33.828,0,0,0,0,0
11513,-2046,2010,7110,-123.400,1657.157,7757.628,1017.942,762.146,792.181,-210.143,243.856,-154.717,250.309,-154.720,22.269,0,0,0,0,0
11613,884,2556,8286,-105.700,1695.157,7770.029,1024.511,739.361,793.560,177.000,380.000,124.004,65.698,-227.852,13.791,0,0,0,0,0
11713,-1061,2890,6815,-104.314,1740.057,7746.043,1023.152,714.713,796.683,13.857,449.000,-239.858,-13.596,-246.478,31.231,0,0,0,0,0
11813,-722,2816,7918,-106.214,1780.443,7741.786,1024.173,694.203,794.955,-19.000,403.857,-42.573,10.213,-205.095,-17.283,0,0,0,0,0
11913,1179,1458,7894,-89.300,1799.086,7728.171,1035.420,667.248,783.995,169.143,186.428,-136.143,112.469,-269.557,-109.593,0,0,0,0,0
12013,-1679,1951,9102,-121.671,1821.229,7740.100,1049.102,645.860,798.324,-323.714,221.428,119.287,136.820,-213.875,143.290,0,0,0,0,0
12113,1198,2634,7271,-119.557,1843.400,7735.457,1051.607,646.741,800.092,21.143,221.715,-46.431,25.052,8.811,17.676,0,0,0,0,0
12213,2337,1349,7779,-78.614,1830.371,7733.771,1089.962,647.383,799.874,409.429,-130.286,-16.855,383.542,6.420,-2.179,0,0,0,0,0
12313,-1602,1366,7761,-84.443,1851.943,7711.643,1096.979,605.006,777.063,-58.286,215.714,-221.284,70.173,-423.769,-228.112,0,0,0,0,0
12413,-2942,2473,8958,-112.300,1848.929,7726.971,1143.448,601.368,790.793,-278.571,-30.143,153.281,464.686,-36.384,137.304,0,0,0,0,0
12513,299,1916,7817,-84.314,1863.700,7724.814,1129.108,590.028,790.339,279.857,147.714,-21.567,-143.391,-113.399,-4.547,0,0,0,0,0
12613,-1946,2897,8709,-112.343,1879.200,7760.357,1150.421,602.584,777.755,-280.286,155.000,355.425,213.127,125.560,-125.836,0,0,0,0,0
12713,82,3554,9500,-111.557,1905.029,7812.857,1150.535,634.238,769.332,7.857,258.286,525.000,1.136,316.539,-84.232,0,0,0,0,0
12813,181,2638,8187,-98.286,1926.714,7822.329,1148.473,632.976,769.798,132.714,216.857,94.717,-20.616,-12.619,4.666,0,0,0,0,0
12913,344,2274,8959,-84.329,1941.257,7830.686,1147.827,629.082,778.864,139.571,145.430,83.569,-6.466,-38.945,90.658,0,0,0,0,0
13013,2450,1165,8902,-49.471,1937.186,7833.671,1186.557,633.157,782.556,348.571,-40.715,29.858,387.307,40.753,36.918,0,0,0,0,0
13113,-1488,3138,9918,-70.000,1965.186,7855.671,1198.774,642.238,818.377,-205.286,280.000,220.000,122.166,90.809,358.206,0,0,0,0,0
13213,2110,1931,8552,-42.186,1980.086,7870.872,1226.133,629.037,821.282,278.143,149.000,152.002,273.589,-132.005,29.058,0,0,0,0,0
13313,98,1236,7819,-40.686,1981.043,7874.614,1226.239,627.852,820.440,15.000,9.572,37.427,1.063,-11.851,-8.423,0,0,0,0,0
13413,-1611,3406,7109,-55.871,1999.557,7867.914,1238.944,650.096,824.739,-151.857,185.143,-67.002,127.047,222.441,42.986,0,0,0,0,0
13513,2685,2064,8654,-19.457,1999.571,7876.214,1280.800,650.098,829.670,364.143,0.143,83.003,418.566,0.015,49.310,0,0,0,0,0
13613,1322,1932,8110,-2.371,1999.471,7877.043,1290.567,650.108,829.874,170.857,-1.000,8.286,97.664,0.098,2.039,0,0,0,0,0
13713,-2164,1444,7400,-35.457,1999.329,7878.800,1315.629,650.229,828.731,-330.857,-1.428,17.568,250.623,1.210,-11.428,0,0,0,0,0
13813,1361,137,6346,-15.857,1983.843,7853.586,1326.026,680.771,847.911,196.000,-154.857,-252.139,103.972,305.428,191.801,0,0,0,0,0
13913,-1393,1179,9070,-39.571,1981.357,7875.600,1335.565,683.383,859.128,-237.143,-24.857,220.142,95.386,26.116,112.172,0,0,0,0,0
14013,2028,328,9183,-18.114,1966.886,7893.286,1356.382,707.104,873.005,214.571,-144.714,176.855,208.174,237.211,138.771,0,0,0,0,0
14113,654,380,9821,1.357,1943.271,7939.857,1356.107,731.677,887.524,194.714,-236.143,465.713,-2.747,245.724,145.189,0,0,0,0,0
14213,-2748,1209,8858,-11.800,1928.571,7963.957,1378.073,735.932,889.222,-131.571,-147.001,241.001,219.652,42.554,16.980,0,0,0,0,0
14313,1411,1281,8194,-0.486,1921.457,7970.486,1386.431,739.741,889.210,113.143,-71.143,65.288,83.584,38.088,-0.125,0,0,0,0,0
14413,-1997,1743,8383,-24.943,1917.071,7982.857,1406.194,739.876,888.838,-244.571,-43.857,123.711,197.627,1.349,-3.712,0,0,0,0,0
14513,-998,1970,8358,-51.300,1920.200,7999.329,1406.894,739.630,884.946,-263.571,31.285,164.717,7.003,-2.459,-38.927,0,0,0,0,0
14613,-17,1264,7677,-55.986,1917.571,7997.943,1406.226,741.628,885.373,-46.857,-26.285,-13.857,-6.683,19.978,4.277,0,0,0,0,0
14713,388,1059,8305,-48.343,1905.929,8006.086,1407.164,748.585,885.539,76.429,-116.428,81.431,9.382,69.573,1.653,0,0,0,0,0
14813,-402,2156,7173,-60.457,1911.900,7995.486,1406.506,748.889,890.990,-121.143,59.714,-106.001,-6.580,3.038,54.510,0,0,0,0,0
14913,1190,428,6793,-43.071,1896.900,7976.286,1414.312,767.708,902.145,173.857,-150.000,-192.002,78.059,188.198,111.548,0,0,0,0,0
15013,-1478,1293,7480,-62.157,1895.271,7975.271,1424.496,768.866,902.662,-190.857,-16.285,-10.142,101.841,11.575,5.172,0,0,0,0,0
15113,-1062,2145,7608,-76.886,1902.729,7966.243,1429.419,768.721,903.129,-147.286,74.570,-90.288,49.230,-1.454,4.677,0,0,0,0,0
15213,3053,539,8918,-34.371,1885.600,7971.657,1476.834,785.378,907.672,425.143,-171.285,54.146,474.150,166.572,45.421,0,0,0,0,0
15313,-904,938,7653,-40.286,1873.300,7964.628,1479.473,793.339,908.207,-59.143,-122.999,-70.288,26.394,79.618,5.353,0,0,0,0,0
15413,-433,1510,8516,-39.371,1874.957,7964.157,1479.211,792.457,907.912,9.143,16.571,-4.712,-2.626,-8.823,-2.950,0,0,0,0,0
15513,3992,765,6722,7.643,1864.171,7948.886,1552.480,802.292,919.611,470.143,-107.858,-152.715,732.690,98.346,116.995,0,0,0,0,0
15613,1178,1273,7915,7.971,1876.700,7942.671,1552.725,785.948,918.348,3.286,125.286,-62.144,2.451,-163.436,-12.628,0,0,0,0,0
15713,-254,785,6137,23.114,1871.214,7898.986,1544.908,792.184,930.392,151.429,-54.857,-436.855,-78.170,62.359,120.432,0,0,0,0,0
15813,-1243,432,5524,-4.529,1855.486,7861.086,1549.995,809.484,971.426,-276.429,-157.285,-378.999,50.874,173.000,410.339,0,0,0,0,0
15913,-3365,2001,7597,-59.214,1867.629,7841.200,1599.281,805.189,962.338,-546.857,121.428,-198.857,492.852,-42.949,-90.877,0,0,0,0,0
16013,2288,1075,8285,-18.700,1865.643,7838.957,1622.144,806.968,961.117,405.143,-19.857,-22.432,228.632,17.789,-12.205,0,0,0,0,0
16113,-193,1407,8454,-11.486,1864.171,7846.829,1620.228,807.709,963.862,72.143,-14.714,78.716,-19.154,7.407,27.446,0,0,0,0,0
16213,-1296,1839,8312,-22.529,1860.586,7855.443,1626.300,807.255,965.285,-110.429,-35.857,86.143,60.714,-4.535,14.231,0,0,0,0,0
16313,142,1261,8650,1.671,1852.300,7883.872,1615.931,810.384,958.942,242.000,-82.856,284.287,-103.684,31.290,-63.427,0,0,0,0,0
16413,1977,1075,7459,44.200,1841.400,7900.471,1628.138,815.618,941.223,425.286,-109.000,165.996,122.067,52.335,-177.197,0,0,0,0,0
16513,-599,1596,6226,56.286,1832.771,7907.128,1620.159,814.973,927.609,120.857,-86.285,66.572,-79.790,-6.447,-136.134,0,0,0,0,0
16613,1567,819,8072,89.171,1806.786,7927.100,1627.112,817.878,915.820,328.857,-259.857,199.717,69.529,29.054,-117.896,0,0,0,0,0
16713,2408,762,9057,129.071,1788.657,7944.800,1649.091,826.724,925.462,399.000,-181.287,176.997,219.795,88.454,96.426,0,0,0,0,0
16813,1215,-172,7101,151.043,1753.829,7939.486,1653.163,856.692,929.217,219.714,-348.285,-53.140,40.713,299.680,37.545,0,0,0,0,0
16913,76,513,9236,144.186,1714.371,7971.743,1652.464,849.295,934.457,-68.571,-394.572,322.568,-6.987,-73.966,52.404,0,0,0,0,0
17013,517,708,9015,104.229,1697.686,7979.157,1608.567,857.391,940.626,-399.571,-166.858,74.146,-438.970,80.956,61.687,0,0,0,0,0
17113,2133,407,9277,93.543,1686.843,8015.557,1592.489,868.770,940.844,-106.857,-108.428,363.999,-160.775,113.791,2.184,0,0,0,0,0
17213,865,237,7542,134.143,1657.157,8009.600,1575.320,882.198,942.502,406.000,-296.858,-59.570,-171.698,134.277,16.580,0,0,0,0,0
17313,-1815,1017,7028,101.686,1625.314,7985.614,1591.654,864.320,945.808,-324.571,-318.428,-239.858,163.345,-178.774,33.053,0,0,0,0,0
17413,1004,1140,7026,84.029,1600.643,7992.314,1574.599,853.100,937.286,-176.571,-246.715,67.002,-170.549,-112.200,-85.211,0,0,0,0,0
17513,-27,1741,8197,90.314,1587.757,8002.757,1573.265,844.023,935.435,62.857,-128.856,104.429,-13.346,-90.777,-18.516,0,0,0,0,0
17613,-454,2407,7683,98.814,1596.714,8005.486,1568.687,849.326,934.219,85.000,89.570,27.285,-45.778,53.030,-12.161,0,0,0,0,0
17713,1290,2531,6292,137.571,1603.214,8001.929,1564.117,854.693,940.243,387.571,65.000,-35.571,-45.701,53.672,60.240,0,0,0,0,0
17813,2032,728,6882,185.686,1581.800,7998.300,1569.839,857.570,944.060,481.143,-214.142,-36.289,57.227,28.767,38.171,0,0,0,0,0
17913,-410,1329,7013,180.800,1564.543,7996.143,1571.153,850.298,946.134,-48.857,-172.572,-21.567,13.136,-72.719,20.742,0,0,0,0,0
18013,-514,1566,7732,166.957,1562.286,7995.429,1572.944,850.081,946.314,-138.429,-22.571,-7.144,17.909,-2.167,1.802,0,0,0,0,0
18113,1830,2021,7959,168.129,1567.114,8006.100,1574.151,851.711,941.620,11.714,48.285,106.714,12.072,16.304,-46.943,0,0,0,0,0
18213,-2648,1747,6956,149.471,1545.071,7970.500,1599.474,826.429,933.505,-186.571,-220.428,-356.001,253.232,-252.828,-81.144,0,0,0,0,0
18313,327,2102,8654,142.957,1533.686,7961.186,1597.809,813.079,923.331,-65.143,-113.857,-93.145,-16.655,-133.494,-101.744,0,0,0,0,0
18413,2229,227,7819,154.471,1514.229,7952.686,1609.850,827.688,921.861,115.143,-194.572,-85.000,120.414,146.087,-14.701,0,0,0,0,0
18513,-70,682,7526,182.700,1495.257,7958.628,1588.197,831.318,917.741,282.286,-189.713,59.429,-216.532,36.306,-41.199,0,0,0,0,0
18613,-520,1296,7488,162.643,1477.257,7947.229,1588.079,821.742,918.560,-200.571,-180.000,-113.999,-1.180,-95.766,8.185,0,0,0,0,0
18713,46,1939,7408,178.457,1463.671,7955.700,1581.312,805.983,910.780,158.143,-135.858,84.717,-67.667,-157.586,-77.795,0,0,0,0,0
18813,2060,1989,8714,218.200,1451.857,7967.071,1593.098,792.014,915.197,397.429,-118.142,113.711,117.858,-139.693,44.168,0,0,0,0,0
18913,1959,1065,7482,229.343,1446.243,7961.186,1602.479,793.342,916.971,111.429,-56.144,-58.857,93.815,13.283,17.741,0,0,0,0,0
19013,-723,1186,7633,243.000,1435.314,7940.200,1590.184,791.581,907.382,136.572,-109.285,-209.854,-122.957,-17.612,-95.892,0,0,0,0,0
19113,1455,757,7726,246.671,1408.500,7946.700,1592.679,782.258,904.189,36.714,-268.143,65.000,24.957,-93.227,-31.931,0,0,0,0,0
19213,1082,908,8514,228.743,1402.200,7957.200,1576.024,784.485,906.445,-179.286,-63.000,105.000,-166.552,22.264,22.564,0,0,0,0,0
19313,994,526,7807,265.829,1390.200,7957.857,1562.998,791.341,906.319,370.857,-120.000,6.567,-130.262,68.566,-1.258,0,0,0,0,0
19413,165,594,7823,310.214,1363.357,7941.643,1514.641,786.007,898.400,443.857,-268.428,-162.139,-483.575,-53.340,-79.197,0,0,0,0,0
19513,1130,677,7043,322.086,1345.657,7930.586,1517.759,787.312,904.607,118.714,-177.001,-110.571,31.189,13.052,62.075,0,0,0,0,0
19613,1230,1262,7848,367.457,1322.300,7918.286,1496.604,764.875,899.780,453.714,-233.571,-123.003,-211.556,-224.371,-48.270,0,0,0,0,0
19713,-442,1148,7835,359.971,1287.929,7894.500,1499.321,716.336,879.430,-74.857,-343.715,-237.856,27.170,-485.394,-203.499,0,0,0,0,0
19813,2491,561,7298,392.971,1258.257,7881.800,1520.293,702.686,881.531,330.000,-296.714,-127.002,209.725,-136.503,21.007,0,0,0,0,0
19913,-728,1076,7707,377.657,1241.143,7863.914,1526.098,692.250,872.145,-153.143,-171.144,-178.857,58.042,-104.357,-93.860,0,0,0,0,0
20013,492,842,8091,349.686,1236.529,7852.329,1505.665,693.817,863.623,-279.714,-46.143,-115.854,-204.326,15.669,-85.219,0,0,0,0,0
20113,-629,237,6078,361.957,1195.086,7797.471,1494.094,665.045,852.557,122.715,-414.429,-548.574,-115.714,-287.716,-110.663,0,0,0,0,0
20213,-631,446,6576,322.800,1173.871,7769.243,1483.649,664.917,859.789,-391.572,-212.142,-282.285,-104.447,-1.283,72.324,0,0,0,0,0
20313,-623,399,8703,312.500,1161.914,7781.872,1487.672,671.188,866.890,-103.000,-119.572,126.289,40.227,62.715,71.010,0,0,0,0,0
20413,-201,571,8163,332.643,1121.414,7796.929,1470.943,617.981,864.221,201.429,-405.000,150.571,-167.290,-532.078,-26.686,0,0,0,0,0
20513,1515,335,7449,315.929,1096.714,7779.714,1450.625,614.356,858.963,-167.143,-247.001,-172.144,-203.175,-36.251,-52.582,0,0,0,0,0
20613,1286,384,8204,315.414,1074.600,7781.057,1450.274,611.746,859.552,-5.143,-221.143,13.428,-3.506,-26.097,5.887,0,0,0,0,0
20713,208,191,6585,349.300,1056.700,7769.414,1419.328,618.964,870.090,338.857,-179.000,-116.431,-309.467,72.184,105.377,0,0,0,0,0
20813,-1521,387,8276,308.129,1060.271,7796.986,1431.135,614.351,854.996,-411.714,35.715,275.718,118.069,-46.130,-150.939,0,0,0,0,0
20913,-2285,1411,5552,295.386,1063.586,7746.729,1450.071,615.607,881.669,-127.429,33.142,-502.573,189.359,12.560,266.733,0,0,0,0,0
21013,-1558,365,5390,244.157,1064.114,7692.543,1451.298,614.991,907.899,-512.286,5.286,-541.855,12.279,-6.162,262.297,0,0,0,0,0
21113,-725,-188,6199,224.457,1056.000,7640.800,1454.956,627.582,888.116,-197.000,-81.143,-517.432,36.578,125.909,-197.825,0,0,0,0,0
21213,-2597,-1117,5883,226.614,1022.771,7598.300,1450.653,678.142,899.955,21.572,-332.286,-425.000,-43.031,505.603,118.392,0,1,0,0,0
21313,-2715,530,7728,167.671,1012.043,7591.643,1484.755,679.911,897.244,-589.429,-107.286,-66.567,341.013,17.681,-27.116,0,0,0,0,0
21413,-3176,755,7512,150.829,997.929,7579.200,1515.582,674.826,892.208,-168.429,-141.143,-124.429,308.275,-50.845,-50.356,0,0,0,0,0
21513,-1719,765,6092,140.529,980.714,7546.829,1525.770,665.109,904.389,-103.000,-172.143,-323.716,101.882,-97.170,121.810,0,0,0,0,0
21613,-36,619,6600,140.257,971.500,7531.443,1525.800,665.588,911.179,-2.714,-92.143,-153.857,0.299,4.791,67.902,0,0,0,0,0
21713,1204,-341,7195,151.914,951.500,7515.586,1530.757,683.453,907.229,116.572,-200.000,-158.569,49.570,178.645,-39.502,0,0,0,0,0
21813,-220,218,8273,154.514,923.814,7531.300,1529.969,673.277,910.679,26.000,-276.857,157.139,-7.886,-101.761,34.500,0,0,0,0,0
21913,-463,380,8569,130.900,923.129,7556.671,1526.557,673.805,914.488,-236.143,-6.857,253.716,-34.114,5.289,38.093,0,0,0,0,0
22013,-1431,1020,8117,131.571,919.229,7565.771,1525.859,672.442,916.847,6.714,-39.000,91.001,-6.979,-13.635,23.582,0,0,0,0,0
22113,2131,-177,7588,177.186,886.057,7565.486,1537.181,668.417,916.836,456.143,-331.714,-2.856,113.214,-40.254,-0.101,0,0,0,0,0
22213,-411,851,7264,127.700,890.514,7541.857,1499.090,667.126,902.882,-494.857,44.572,-236.289,-380.908,-12.902,-139.542,0,0,0,0,0
22313,-2348,1247,7766,107.071,894.929,7543.471,1522.891,668.447,903.181,-206.286,44.143,16.143,238.013,13.207,2.982,0,0,0,0,0
22413,-319,418,6687,108.700,879.329,7517.343,1522.374,666.651,901.122,16.286,-156.000,-261.284,-5.175,-17.964,-20.590,0,0,0,0,0
22513,-1149,25,7474,35.257,868.757,7528.086,1455.815,674.204,896.044,-734.429,-105.714,107.432,-665.590,75.536,-50.777,0,0,0,0,0
22613,-173,851,8131,15.957,862.729,7531.171,1449.479,672.447,897.741,-193.000,-60.286,30.854,-63.362,-17.572,16.975,0,0,0,0,0
22713,2011,193,7352,48.314,854.271,7548.529,1468.251,677.078,882.230,323.571,-84.572,173.574,187.721,46.310,-155.115,0,0,0,0,0
22813,619,58,7502,74.914,848.929,7576.786,1461.466,681.848,847.944,266.000,-53.428,282.568,-67.843,47.699,-342.860,0,0,0,0,0
22913,-332,640,4329,118.243,829.486,7530.100,1402.615,667.983,931.403,433.286,-194.429,-466.855,-588.513,-138.650,834.587,0,0,0,0,0
23013,-2398,591,6251,51.300,822.571,7501.043,1409.270,667.911,939.094,-669.429,-69.143,-290.571,66.550,-0.721,76.918,0,0,0,0,0
23113,-952,-12,8422,40.457,802.300,7500.586,1414.020,671.390,938.638,-108.429,-202.714,-4.570,47.500,34.793,-4.563,0,0,0,0,0
23213,2758,907,9982,98.371,788.986,7524.443,1440.862,659.841,979.301,579.143,-133.143,238.569,268.418,-115.488,406.625,0,0,0,0,0
23313,2081,370,6708,126.071,776.257,7496.700,1459.946,659.207,974.518,277.000,-127.286,-277.427,190.844,-6.346,-47.831,0,0,0,0,0
23413,2126,-1,7417,128.200,760.886,7496.100,1462.749,664.585,974.553,21.286,-153.714,-6.001,28.030,53.779,0.359,0,0,0,0,0
23513,-2136,1112,8722,106.243,753.971,7531.757,1484.869,658.349,973.091,-219.571,-69.143,356.572,221.196,-62.360,-14.621,0,0,0,0,0
23613,-640,462,2692,74.714,748.871,7454.900,1476.927,659.208,1127.585,-315.286,-51.000,-768.574,-79.417,8.588,1544.939,0,0,0,0,1
23713,-3958,941,5205,-16.229,751.429,7399.872,1525.646,659.601,1141.958,-909.429,25.572,-550.283,487.183,3.929,143.726,0,0,0,0,0
23813,4222,-504,6263,26.729,746.686,7387.900,1600.219,667.371,1149.396,429.571,-47.429,-119.717,745.737,77.708,74.387,0,0,1,0,0
23913,-2727,2369,7609,-13.314,773.200,7364.657,1633.215,693.902,1128.042,-400.429,265.143,-232.427,329.961,265.306,-213.549,0,0,0,0,0
24013,-3184,-115,5923,-66.186,761.443,7320.486,1674.574,701.834,1123.080,-528.714,-117.571,-441.714,413.584,79.321,-49.615,0,0,0,0,0
24113,-1258,-555,5557,-114.629,747.700,7267.343,1659.232,717.875,1117.240,-484.429,-137.429,-531.431,-153.420,160.411,-58.396,0,0,0,0,0
24213,-2482,-293,4088,-162.443,740.129,7218.000,1678.427,725.971,1178.608,-478.143,-75.714,-493.428,191.958,80.958,613.676,0,0,0,0,0
24313,-2408,71,6899,-170.914,726.614,7216.157,1688.215,729.488,1179.005,-84.714,-135.143,-18.428,97.874,35.168,3.966,0,0,0,0,0
24413,-2351,-756,7291,-218.843,699.529,7219.943,1701.749,748.585,1178.813,-479.286,-270.857,37.856,135.338,190.971,-1.913,0,0,0,0,0
24513,-1776,-1240,7068,-243.829,656.943,7203.814,1711.560,772.535,1173.044,-249.857,-425.857,-161.284,98.113,239.501,-57.689,0,0,0,0,0
24613,-2106,-174,8506,-267.429,620.071,7215.571,1725.627,749.374,1181.879,-236.000,-368.715,117.568,140.668,-231.607,88.348,0,0,0,0,0
24713,-3972,556,8116,-342.600,591.857,7241.628,1770.181,713.203,1181.337,-751.714,-282.143,260.571,445.542,-361.717,-5.425,0,0,0,0,0
24813,-2969,346,4061,-414.043,586.400,7201.329,1773.817,713.601,1239.599,-714.428,-54.571,-402.998,36.359,3.987,582.618,0,0,0,0,0
24913,-1473,564,3153,-429.229,575.471,7146.186,1778.262,707.981,1329.355,-151.857,-109.286,-551.431,44.449,-56.206,897.567,0,0,0,0,0
25013,1181,638,9114,-405.014,562.214,7165.929,1788.454,697.926,1348.040,242.143,-132.571,197.432,101.919,-100.549,186.846,0,0,0,0,0
25113,1468,670,8320,-410.186,542.914,7171.086,1782.497,675.643,1351.750,-51.714,-193.000,51.572,-59.567,-222.831,37.096,0,0,0,0,0
25213,-1364,344,8908,-391.843,522.871,7198.971,1765.903,660.261,1367.072,183.428,-200.429,278.853,-165.935,-153.815,153.226,0,0,0,0,0
25313,571,477,6911,-388.357,499.657,7174.071,1767.559,632.307,1356.174,34.857,-232.143,-248.999,16.555,-279.539,-108.986,0,0,0,0,0
25413,1015,594,2411,-405.700,504.900,7096.814,1747.637,631.546,1466.763,-173.429,52.429,-772.568,-199.224,-7.615,1105.895,0,0,0,0,0
25513,-1572,1620,8610,-427.157,518.300,7112.300,1752.597,644.970,1476.900,-214.571,134.000,154.854,49.603,134.240,101.368,0,0,0,0,0
25613,-3005,1051,8017,-462.657,514.800,7119.857,1779.085,641.395,1480.153,-355.000,-35.000,75.571,264.884,-35.749,32.529,0,0,0,0,0
25713,-192,1351,7623,-466.057,506.400,7122.929,1778.337,626.362,1480.970,-34.000,-84.000,30.718,-7.483,-150.327,8.175,0,0,0,0,0
25813,1069,800,3736,-480.214,489.414,7051.814,1762.041,601.557,1521.817,-141.572,-169.857,-711.143,-162.960,-248.051,408.467,0,0,0,0,0
25913,-2638,935,6571,-545.886,487.557,7038.800,1755.561,599.976,1521.978,-656.714,-18.571,-130.146,-64.800,-15.812,1.609,0,0,0,0,0
26013,-2422,-876,6683,-570.157,458.100,7025.229,1769.531,615.382,1520.854,-242.714,-294.571,-135.713,139.701,154.066,-11.239,0,0,0,0,0
26113,-2561,-801,5288,-627.529,435.843,6990.400,1768.044,632.117,1532.280,-573.714,-222.571,-348.286,-14.872,167.343,114.260,0,0,0,0,0
26213,-2613,753,9162,-680.314,433.629,6999.657,1771.372,630.729,1543.374,-527.857,-22.143,92.573,33.284,-13.879,110.942,0,0,0,0,0
26313,-2789,167,4352,-734.357,428.500,6950.300,1777.165,631.416,1571.751,-540.428,-51.286,-493.574,57.922,6.871,283.767,0,0,0,0,0
26413,-1654,1020,7256,-760.343,434.586,6942.200,1777.123,635.025,1568.690,-259.857,60.857,-80.996,-0.417,36.086,-30.607,0,0,0,0,0
26513,-4331,1871,11497,-838.357,451.643,7005.829,1811.951,656.964,1659.208,-780.143,170.571,636.284,348.286,219.390,905.172,0,0,0,0,0
26613,-1186,366,11362,-872.871,438.843,7056.029,1795.157,649.739,1735.341,-345.143,-128.000,502.002,-167.947,-72.244,761.331,0,0,0,0,0
26713,-1820,914,10274,-892.557,435.500,7090.872,1797.877,646.677,1774.671,-196.857,-33.429,348.428,27.205,-30.626,393.306,0,0,0,0,0
26813,-3938,1019,10954,-984.400,442.043,7143.100,1786.862,650.221,1832.843,-918.429,65.428,522.285,-110.156,35.440,581.719,0,0,0,0,0
26913,-973,-52,3160,-987.900,425.929,7078.143,1786.596,648.284,1891.348,-35.000,-161.143,-649.570,-2.657,-19.363,585.045,0,0,0,0,0
27013,-2125,357,5924,-1025.286,419.000,7047.186,1782.614,646.389,1892.250,-373.857,-69.286,-309.575,-39.823,-18.950,9.028,0,0,0,0,0
27113,-3940,844,5826,-1072.586,427.671,7043.586,1815.102,647.959,1894.329,-472.999,86.714,-35.996,324.885,15.701,20.790,0,0,0,0,0
27213,-1131,309,7877,-1079.729,425.714,7062.171,1814.334,648.108,1896.032,-71.428,-19.571,185.854,-7.681,1.486,17.026,0,0,0,0,0
27313,-3179,991,7276,-1116.243,434.171,7041.786,1830.423,651.557,1885.925,-365.143,84.571,-203.857,160.895,34.495,-101.071,0,0,0,0,0
27413,-1573,614,9046,-1135.843,434.786,7054.400,1827.862,651.706,1896.307,-196.001,6.143,126.143,-25.614,1.490,103.817,0,0,0,0,0
27513,1307,-786,7930,-1138.814,418.771,7061.271,1823.715,667.542,1898.594,-29.714,-160.143,68.716,-41.472,158.359,22.876,0,0,0,0,0
27613,1663,-258,6180,-1133.429,409.600,7032.357,1831.408,672.350,1896.382,53.857,-91.714,-289.146,76.934,48.076,-22.124,0,0,0,0,0
27713,-1718,77,8621,-1160.943,407.971,7061.443,1825.507,673.015,1904.892,-275.143,-16.286,290.859,-59.016,6.652,85.100,0,0,0,0,0
27813,-540,662,9103,-1146.929,411.900,7073.257,1826.454,673.684,1914.926,140.143,39.286,118.145,9.474,6.685,100.343,0,0,0,0,0
27913,-900,1230,14322,-1127.143,409.314,7198.543,1821.513,670.182,2090.172,197.858,-25.857,1252.856,-49.407,-35.015,1752.455,0,0,0,0,0
28013,2977,222,8889,-1062.357,407.271,7248.529,1884.593,670.532,2088.161,647.856,-20.429,499.858,630.795,3.499,-20.107,0,0,0,0,0
28113,2820,285,7482,-1011.714,414.029,7266.857,1939.800,666.873,2084.496,506.429,67.571,183.281,552.072,-36.595,-36.650,0,0,0,0,0
28213,726,-365,7100,-964.243,424.771,7284.243,1941.084,647.910,2077.946,474.714,107.429,173.857,12.839,-189.629,-65.496,0,0,0,0,0
28313,168,-692,9259,-923.057,407.314,7306.114,1934.073,661.166,2090.521,411.857,-174.571,218.716,-70.114,132.567,125.750,0,0,0,0,0
28413,-616,-1060,6774,-886.486,381.386,7295.571,1915.238,682.275,2091.317,365.714,-259.286,-105.430,-188.350,211.085,7.957,0,0,0,0,0
28513,2786,-1449,6574,-822.129,349.757,7302.457,1961.317,714.324,2088.134,643.571,-316.286,68.857,460.798,320.486,-31.829,0,0,0,0,0
28613,2809,-640,5625,-781.486,331.771,7288.529,2006.151,723.114,2096.010,406.429,-179.857,-139.282,448.340,87.902,78.762,0,0,0,0,0
28713,1626,-505,5297,-775.457,329.429,7261.414,2012.732,725.551,2109.279,60.286,-23.429,-271.147,65.808,24.375,132.688,0,0,0,0,0
28813,3235,-414,6568,-726.100,320.400,7237.057,2067.369,730.795,2107.301,493.572,-90.286,-243.569,546.367,52.437,-19.785,0,0,0,0,0
28913,1053,-47,8539,-704.443,314.300,7236.628,2077.925,732.053,2107.032,216.571,-61.000,-4.287,105.564,12.581,-2.681,0,0,0,0,0
29013,-125,-762,6326,-685.786,288.843,7211.043,2077.181,738.030,2107.061,186.572,-254.571,-255.854,-7.444,59.769,0.283,0,0,0,0,0
29113,-767,-553,8365,-727.186,283.471,7222.143,2049.321,742.754,2111.060,-414.000,-53.714,111.001,-278.604,47.240,39.993,0,0,0,0,0
29213,1874,315,7343,-694.543,275.814,7223.271,2072.168,739.620,2111.104,326.429,-76.571,11.284,228.477,-31.340,0.437,0,0,0,0,0
29313,1207,-272,5848,-643.757,254.114,7195.872,2074.585,733.062,2116.322,507.857,-217.000,-273.999,24.165,-65.582,52.183,0,0,0,0,0
29413,-2237,443,8739,-671.157,254.471,7225.186,2082.764,733.148,2123.271,-274.000,3.571,293.140,81.792,0.859,69.490,0,0,0,0,0
29513,2060,-624,8494,-625.314,245.200,7239.757,2106.918,740.062,2128.422,458.429,-92.714,145.718,241.538,69.143,51.509,0,0,0,0,0
29613,-62,480,8823,-623.729,239.900,7249.643,2107.300,737.027,2134.138,15.857,-53.000,98.857,3.818,-30.353,57.158,0,0,0,0,0
29713,-462,1144,8250,-659.057,253.486,7262.471,2083.427,744.761,2137.411,-353.286,135.857,128.281,-238.726,77.348,32.737,0,0,0,0,0
29813,2383,-361,5200,-633.857,247.500,7229.586,2109.241,747.985,2151.138,252.000,-59.857,-328.853,258.145,32.238,137.266,0,0,0,0,0
29913,-1785,376,6737,-654.614,243.729,7263.986,2113.314,746.661,2123.555,-207.571,-37.714,343.999,40.728,-13.241,-275.833,0,0,0,0,0
30013,-1365,-133,5150,-639.857,233.386,7248.257,2104.678,746.794,2135.045,147.571,-103.429,-157.285,-86.360,1.325,114.907,0,0,0,0,0
30113,1704,-931,4704,-601.914,220.257,7195.143,2122.574,758.971,2151.370,379.428,-131.286,-531.143,178.958,121.771,163.247,0,0,0,0,0
30213,-3653,1017,6026,-693.500,221.829,7138.628,2113.917,760.503,2129.267,-915.857,15.714,-565.146,-86.565,15.324,-221.035,0,0,0,0,0
30313,-4107,1320,8979,-781.900,235.400,7171.071,2125.399,771.424,2139.733,-884.000,135.714,324.429,114.812,109.213,104.668,0,0,0,0,0
30413,-279,443,9059,-816.257,241.743,7194.529,2097.368,771.280,2151.270,-343.571,63.429,234.575,-280.305,-1.444,115.366,0,0,0,0,0
30513,393,263,6012,-780.129,229.614,7155.814,2096.105,764.142,2147.815,361.285,-121.286,-387.144,-12.632,-71.382,-34.548,0,0,0,0,0
30613,2117,-451,6474,-740.743,216.571,7209.843,2124.083,767.847,2081.389,393.857,-130.429,540.283,279.783,37.051,-664.263,0,0,0,0,0
30713,590,-328,6940,-675.771,198.443,7234.628,2094.025,765.506,2067.652,649.714,-181.286,247.856,-300.583,-23.407,-137.368,0,0,0,0,0
30813,1337,792,7951,-716.986,216.957,7258.743,2024.457,763.964,2066.023,-412.143,185.143,241.143,-695.676,-15.421,-16.294,0,0,0,0,0
30913,1882,229,7822,-651.143,186.386,7261.786,2032.947,718.712,2066.693,658.428,-305.714,30.430,84.894,-452.520,6.702,0,0,0,0,0
31013,-46,-318,9067,-606.314,183.486,7306.700,2011.081,720.330,2071.268,448.286,-29.000,449.146,-218.661,16.180,45.752,0,0,0,0,0
31113,-500,-399,8338,-595.486,185.714,7346.429,2009.583,718.280,2063.984,108.286,22.286,397.285,-14.978,-20.499,-72.839,0,0,0,0,0
31213,-724,-466,8229,-570.371,183.243,7405.586,1996.794,720.218,2028.789,251.143,-24.714,591.572,-127.889,19.379,-351.956,0,0,0,0,0
31313,1576,-396,9188,-513.457,176.571,7438.286,2000.380,723.383,2038.782,569.142,-66.714,326.997,35.857,31.647,99.938,0,0,0,0,0
31413,1821,-1121,7961,-453.857,171.357,7447.857,2006.884,731.358,2039.641,596.000,-52.143,95.713,65.043,79.750,8.585,0,0,0,0,0
31513,-1568,-369,7359,-450.886,183.800,7452.014,2005.077,714.454,2039.159,29.714,124.429,41.572,-18.066,-169.038,-4.821,0,0,0,0,0
31613,1979,-395,7868,-392.529,180.643,7442.900,2015.476,716.514,2035.851,583.571,-31.572,-91.143,103.987,20.594,-33.079,0,0,0,0,0
31713,652,-579,8397,-326.471,164.429,7446.914,1972.391,720.666,2037.451,660.571,-162.143,40.142,-430.845,41.526,15.997,0,0,0,0,0
31813,186,-1054,8448,-281.400,144.429,7509.586,1947.381,734.641,1999.454,450.714,-200.000,626.719,-250.106,139.742,-379.966,0,0,0,0,0
31913,715,-746,8428,-250.143,125.714,7584.943,1945.562,740.377,1932.109,312.571,-187.143,753.569,-18.182,57.366,-673.446,0,0,0,0,0
32013,770,-39,9104,-256.014,116.043,7584.800,1941.851,738.040,1931.997,-58.714,-96.714,-1.431,-37.111,-23.370,-1.128,0,0,0,0,0
32113,1646,265,9066,-253.471,110.257,7595.457,1944.222,735.257,1938.071,25.428,-57.857,106.572,23.706,-27.831,60.740,0,0,0,0,0
32213,-954,-34,7981,-247.614,104.857,7582.214,1941.484,734.909,1932.215,58.571,-54.000,-132.427,-27.384,-3.486,-58.555,0,0,0,0,0
32313,-553,529,7857,-263.671,105.600,7595.729,1939.294,735.311,1930.781,-160.571,7.429,135.142,-21.901,4.020,-14.342,0,0,0,0,0
32413,397,226,7022,-272.500,100.343,7661.600,1934.854,733.112,1828.731,-88.286,-52.571,658.716,-44.395,-21.984,-1020.496,0,0,0,0,0
32513,-1199,-215,8600,-267.171,74.129,7661.457,1931.779,710.771,1828.658,53.286,-262.143,-1.431,-30.753,-223.408,-0.737,0,0,0,0,0
32613,1095,139,8561,-208.600,61.100,7669.229,1909.912,701.038,1831.306,585.714,-130.286,77.715,-218.667,-97.337,26.486,0,0,0,0,0
32713,-32,257,9539,-206.314,45.471,7696.600,1910.026,684.097,1844.680,22.857,-156.286,273.716,1.144,-169.408,133.740,0,0,0,0,0
32813,1978,-233,9089,-193.329,30.714,7773.071,1921.707,678.783,1789.023,129.857,-147.571,764.712,116.808,-53.144,-556.571,0,0,0,0,0
32913,3116,-1433,5735,-111.129,-3.114,7761.128,1938.369,691.756,1799.766,822.000,-338.286,-119.429,166.621,129.733,107.432,0,0,0,0,0
33013,1301,-1863,8797,-57.943,-17.214,7791.329,1925.266,718.929,1799.158,531.857,-141.000,302.002,-131.038,271.734,-6.083,0,0,0,0,0
33113,-158,-1518,10693,-23.614,-27.457,7868.543,1901.607,734.952,1806.036,343.286,-102.429,772.144,-236.589,160.231,68.778,0,0,0,0,0
33213,1383,-673,11854,33.471,-47.829,7907.000,1882.905,732.797,1860.994,570.857,-203.714,384.570,-187.019,-21.553,549.583,0,0,0,0,0
33313,2613,-641,6641,110.643,-59.371,7939.700,1876.333,735.680,1817.851,771.714,-115.429,327.002,-65.715,28.832,-431.429,0,0,0,0,0
33413,-1150,53,8207,117.843,-73.186,7953.286,1870.506,724.273,1816.243,72.000,-138.143,135.854,-58.274,-114.072,-16.078,0,0,0,0,0
33513,1533,-1388,8494,201.614,-119.743,7910.386,1799.344,702.212,1766.827,837.714,-465.571,-428.999,-711.616,-220.606,-494.160,0,0,0,0,0
33613,-1365,-840,7794,199.057,-136.971,7859.414,1801.440,704.873,1717.288,-25.571,-172.286,-509.717,20.959,26.605,-495.391,0,0,0,0,0
33713,-1013,388,8977,210.586,-144.486,7840.886,1791.034,696.381,1698.026,115.286,-75.143,-185.283,-104.059,-84.914,-192.628,0,0,0,0,0
33813,-451,1114,8114,260.400,-143.129,7800.314,1722.123,698.736,1656.581,498.143,13.571,-405.713,-689.116,23.546,-414.449,0,0,0,0,0
33913,329,1464,10517,279.000,-121.471,7905.414,1715.720,724.253,1590.924,186.000,216.571,1050.996,-64.026,255.171,-656.561,0,0,0,0,0
34013,17,896,8880,309.600,-113.771,7947.643,1691.502,732.122,1576.940,306.000,77.000,422.290,-242.178,78.685,-139.843,0,0,0,0,0
34113,-1193,676,6762,348.843,-116.171,7961.014,1622.932,729.248,1562.798,392.429,-24.000,133.711,-685.707,-28.739,-141.420,0,0,0,0,0
34213,2078,-442,7320,394.686,-126.900,7953.057,1625.803,728.438,1564.623,458.428,-107.286,-79.570,28.711,-8.102,18.245,0,0,0,0,0
34313,1778,-910,10458,465.500,-154.057,7998.514,1575.789,721.659,1590.304,708.143,-271.571,454.570,-500.138,-67.787,256.818,0,0,0,0,0
34413,-1301,-845,8173,469.386,-174.900,7986.043,1571.086,720.243,1585.457,38.857,-208.428,-124.712,-47.034,-14.159,-48.478,0,0,0,0,0
34513,-821,-418,7650,438.986,-169.643,7982.043,1575.166,717.099,1585.946,-304.000,52.571,-40.000,40.808,-31.435,4.894,0,0,0,0,0
34613,-1070,-237,7820,399.943,-169.343,8005.471,1578.211,717.067,1571.197,-390.428,3.000,234.282,30.450,-0.327,-147.490,0,0,0,0,0
34713,-2160,20,6430,393.629,-170.157,7974.171,1587.529,716.819,1580.420,-63.143,-8.143,-312.998,93.177,-2.479,92.229,0,0,0,0,0
34813,-5,-445,7283,401.271,-185.971,7948.171,1584.301,710.469,1576.602,76.429,-158.143,-260.000,-32.285,-63.502,-38.182,0,0,0,0,0
34913,-859,-1320,6905,401.857,-222.400,7842.214,1583.827,702.259,1381.891,5.857,-364.286,-1059.570,-4.736,-82.096,-1947.103,0,0,0,0,0
35013,1182,-2318,8576,376.214,-258.686,7837.743,1556.217,742.810,1379.000,-256.429,-362.857,-44.717,-276.099,405.505,-28.910,0,0,0,0,0
35113,-252,-2940,8843,332.329,-304.757,7857.186,1529.774,805.063,1383.435,-438.857,-460.714,194.429,-264.434,622.538,44.347,0,1,0,0,0
35213,-6129,701,11548,234.400,-289.529,7920.729,1710.209,813.815,1447.849,-979.286,152.286,635.430,1804.352,87.511,644.137,0,0,0,1,0
35313,-1715,85,9049,207.500,-278.429,7917.729,1725.780,813.548,1445.288,-269.000,111.000,-30.000,155.707,-2.663,-25.608,0,0,0,0,0
35413,2799,-271,7097,256.286,-267.157,7922.343,1749.911,808.089,1442.141,487.857,112.714,46.143,241.315,-54.592,-31.467,0,0,0,0,0
35513,-244,-230,7007,213.000,-249.743,7928.529,1724.085,795.469,1437.265,-432.857,174.143,61.860,-258.259,-126.201,-48.762,0,0,0,0,0
35613,-848,-608,11722,160.757,-249.286,8015.628,1699.867,795.254,1479.161,-522.429,4.571,870.996,-242.181,-2.152,418.964,0,0,0,0,0
35713,1450,-484,9482,158.243,-248.986,8075.414,1697.827,795.161,1452.404,-25.143,3.000,597.856,-20.400,-0.927,-267.576,0,0,0,0,0
35813,2799,-670,8407,152.014,-252.643,8101.686,1687.295,796.499,1441.491,-62.286,-36.571,262.715,-105.317,13.382,-109.130,0,0,0,0,0
35913,4020,-709,10485,194.400,-262.100,8129.486,1745.653,797.930,1468.175,423.857,-94.572,278.003,583.579,14.310,266.838,0,0,0,0,0
36013,3507,-773,9520,246.286,-262.257,8175.114,1788.831,798.030,1461.031,518.857,-1.571,456.284,431.782,0.995,-71.437,0,0,0,0,0
36113,986,-484,10513,271.329,-261.271,8205.800,1786.740,797.713,1487.023,250.429,9.857,306.855,-20.916,-3.173,259.916,0,0,0,0,0
36213,297,-470,9074,248.800,-272.486,8230.528,1776.302,795.046,1486.862,-225.286,-112.143,247.285,-104.384,-26.667,-1.606,0,0,0,0,0
36313,362,-939,8599,236.729,-282.014,8269.828,1772.616,798.970,1459.473,-120.714,-95.286,392.998,-36.852,39.244,-273.888,0,0,0,0,0
36413,-456,-627,9177,262.171,-297.300,8276.086,1749.559,795.180,1462.407,254.428,-152.857,62.578,-230.571,-37.905,29.340,0,0,0,0,0
36513,-263,-494,8221,228.986,-295.443,8272.186,1737.130,794.566,1462.185,-331.857,18.571,-39.004,-124.287,-6.136,-2.224,0,0,0,0,0
36613,-704,-548,8204,219.814,-310.129,8263.343,1740.334,789.583,1460.698,-91.714,-146.857,-88.428,32.036,-49.835,-14.869,0,0,0,0,0
36713,-283,-379,8179,222.371,-331.886,8262.328,1739.462,769.953,1460.731,25.571,-217.571,-10.146,-8.721,-196.294,0.337,0,0,0,0,0
36813,-791,-373,7730,177.029,-332.057,8298.472,1723.848,769.961,1415.100,-453.429,-1.714,361.436,-156.140,0.079,-456.313,0,0,0,0,0
36913,-56,-405,8934,201.729,-343.214,8329.857,1707.871,765.264,1404.444,247.000,-111.572,313.857,-159.768,-46.968,-106.565,0,0,0,0,0
37013,-969,-1911,9990,207.386,-368.614,8399.000,1703.322,787.062,1364.772,56.571,-254.000,691.426,-45.492,217.977,-396.713,0,0,0,0,0
37113,1068,-1809,8606,198.300,-381.157,8454.743,1696.999,802.764,1290.374,-90.857,-125.428,557.432,-63.229,157.018,-743.981,0,0,0,0,0
37213,326,-1335,9809,255.143,-414.757,8508.786,1632.457,792.699,1266.521,568.428,-336.000,540.430,-645.424,-100.646,-238.528,0,0,0,0,0
37313,300,-1689,7946,318.100,-457.743,8494.028,1545.687,778.928,1266.975,629.572,-429.857,-147.578,-867.700,-137.714,4.534,0,0,0,0,0
37413,-365,-1421,9502,316.871,-484.371,8500.357,1546.195,779.541,1270.881,-12.286,-266.286,63.291,5.082,6.132,39.065,0,0,0,0,0
37513,774,-775,9412,322.314,-499.200,8548.929,1547.123,775.043,1239.434,54.429,-148.286,485.713,9.285,-44.982,-314.473,0,0,0,0,0
37613,-743,-942,9695,281.457,-506.214,8594.942,1536.919,776.795,1221.204,-408.571,-70.143,460.137,-102.040,17.520,-182.302,0,0,0,0,0
37713,-381,-879,7198,267.586,-514.086,8598.629,1538.453,777.740,1216.584,-138.714,-78.714,36.865,15.339,9.453,-46.198,0,0,0,0,0
37813,-825,-728,6262,236.700,-535.800,8574.500,1538.376,762.032,1245.593,-308.857,-217.143,-241.289,-0.775,-157.082,290.087,0,0,0,0,0
37913,-421,-604,7072,203.800,-547.700,8563.786,1527.425,756.479,1255.208,-329.000,-119.000,-107.139,-109.512,-55.524,96.151,0,0,0,0,0
38013,-334,-164,7613,199.686,-545.500,8543.015,1528.479,757.368,1258.734,-41.143,22.000,-207.715,10.547,8.883,35.265,0,0,0,0,0
38113,-421,67,8071,200.814,-538.843,8539.200,1527.992,760.667,1259.754,11.286,66.572,-38.145,-4.878,32.993,10.195,0,0,0,0,0
38213,-427,-180,8478,205.057,-534.757,8542.757,1525.828,761.815,1259.224,42.429,40.857,35.566,-21.633,11.475,-5.295,0,0,0,0,0
38313,-196,-347,8647,179.743,-534.057,8535.028,1517.551,761.964,1256.899,-253.143,7.000,-77.285,-82.776,1.495,-23.258,0,0,0,0,0
38413,-505,-238,8354,146.514,-521.443,8540.643,1506.676,759.448,1255.198,-332.286,126.143,56.143,-108.751,-25.163,-17.001,0,0,0,0,0
38513,-291,-583,8426,164.757,-524.500,8555.886,1493.479,759.259,1247.210,182.429,-30.571,152.432,-131.965,-1.891,-79.889,0,0,0,0,0
38613,-479,-381,8335,129.643,-524.300,8562.558,1479.238,759.295,1244.759,-351.143,2.000,66.719,-142.406,0.359,-24.509,0,0,0,0,0
38713,-173,-390,8214,117.857,-521.600,8559.942,1478.316,759.431,1245.296,-117.857,27.000,-26.152,-9.222,1.366,5.372,0,0,0,0,0
38813,-381,-405,8248,109.757,-512.329,8557.086,1479.473,756.832,1245.779,-81.000,92.714,-28.564,11.571,-25.990,4.828,0,0,0,0,0
38913,-292,-367,8447,95.371,-506.914,8557.357,1478.414,756.497,1245.753,-143.857,54.143,2.715,-10.597,-3.354,-0.261,0,0,0,0,0
39013,-579,-443,8237,76.100,-512.686,8544.972,1478.287,754.443,1244.566,-192.714,-57.715,-123.857,-1.270,-20.535,-11.868,0,0,0,0,0
39113,-321,-469,8396,48.000,-523.171,8535.400,1466.828,748.640,1243.097,-281.000,-104.857,-95.713,-114.581,-58.032,-14.686,0,0,0,0,0
39213,-389,-339,8105,56.071,-527.529,8537.172,1462.842,746.665,1242.394,80.714,-43.571,17.715,-39.869,-19.747,-7.029,0,0,0,0,0
39313,-226,-412,8252,60.743,-540.971,8542.814,1461.411,735.916,1240.187,46.714,-134.429,56.426,-14.309,-107.493,-22.073,0,0,0,0,0
39413,-352,-253,8175,50.043,-547.814,8559.286,1461.651,730.963,1227.471,-107.000,-68.428,164.717,2.406,-49.531,-127.163,0,0,0,0,0
39513,-274,-240,8181,63.257,-548.171,8553.300,1454.463,730.807,1228.279,132.143,-3.572,-59.863,-71.880,-1.566,8.083,0,0,0,0,0
39613,-301,-265,8121,43.314,-553.943,8547.015,1449.742,726.942,1229.349,-199.429,-57.714,-62.852,-47.208,-38.646,10.697,0,0,0,0,0
39713,-395,-136,7753,38.129,-559.557,8521.500,1450.651,722.159,1227.028,-51.857,-56.143,-255.146,9.091,-47.830,-23.209,0,0,0,0,0
39813,-263,-98,7795,6.114,-557.629,8503.015,1432.097,723.208,1228.085,-320.143,19.285,-184.854,-185.547,10.493,10.576,0,0,0,0,0
39913,-354,48,7700,-43.457,-536.471,8531.086,1382.800,718.940,1186.239,-495.714,211.572,280.713,-492.971,-42.679,-418.468,0,0,0,0,0
40013,-94,36,7766,-63.386,-509.343,8516.357,1373.299,704.048,1189.242,-199.286,271.286,-147.285,-95.002,-148.927,30.037,0,0,0,0,0
40113,-404,88,7672,-66.900,-486.400,8473.200,1373.852,696.936,1164.017,-35.143,229.429,-431.572,5.524,-71.116,-252.249,0,0,0,0,0
40213,-114,349,8009,-88.286,-471.800,8418.271,1362.722,703.548,1091.657,-213.857,146.000,-549.287,-111.299,66.116,-723.605,0,0,0,0,0
40313,-498,595,7693,-132.729,-454.143,8433.300,1324.082,714.504,1074.188,-444.429,176.571,150.283,-386.401,109.568,-174.691,0,0,0,0,0
40413,-142,352,7948,-118.329,-449.871,8429.600,1318.409,718.406,1075.406,144.000,42.714,-37.002,-56.726,39.021,12.185,0,0,0,0,0
40513,-375,325,7899,-145.586,-425.400,8421.100,1303.628,715.202,1077.214,-272.571,244.714,-85.000,-147.815,-32.045,18.074,0,0,0,0,0
40613,-170,420,8242,-128.514,-407.400,8427.500,1295.345,720.378,1074.797,170.714,180.000,64.004,-82.822,51.758,-24.164,0,0,0,0,0
40713,-278,465,8222,-118.014,-406.300,8416.714,1291.105,721.649,1073.016,105.000,11.000,-107.861,-42.400,12.715,-17.819,0,0,0,0,0
40813,-148,315,8269,-113.686,-417.714,8418.929,1290.490,703.606,1072.548,43.286,-114.143,22.148,-6.160,-180.435,-4.672,0,0,0,0,0
40913,-419,275,8217,-124.371,-434.700,8386.071,1289.876,671.598,1042.583,-106.857,-169.857,-328.574,-6.130,-320.078,-299.658,0,0,0,0,0
41013,-355,358,8334,-129.686,-442.386,8378.271,1290.049,659.291,1040.899,-53.143,-76.857,-77.998,1.729,-123.066,-16.832,0,0,0,0,0
41113,-343,346,8280,-117.543,-447.100,8399.957,1283.969,652.421,1022.653,121.429,-47.143,216.855,-60.798,-68.699,-182.460,0,0,0,0,0
41213,-255,285,8360,-150.871,-436.714,8414.814,1256.533,658.181,1014.377,-333.286,103.857,148.574,-274.368,57.596,-82.766,0,0,0,0,0
41313,-293,386,8156,-180.457,-418.200,8381.929,1234.964,662.819,984.479,-295.857,185.143,-328.857,-215.686,46.379,-298.979,0,0,0,0,0
41413,-414,390,8085,-167.786,-400.557,8380.672,1227.932,667.643,984.801,126.714,176.429,-12.568,-70.317,48.237,3.221,0,0,0,0,0
41513,-285,355,8046,-160.129,-389.514,8386.328,1225.504,673.629,981.720,76.572,110.428,56.562,-24.283,59.860,-30.811,0,0,0,0,0
41613,-425,382,7898,-150.914,-380.671,8387.442,1221.045,679.609,981.121,92.143,88.429,11.143,-44.592,59.804,-5.992,0,0,0,0,0
41713,-176,434,7999,-122.571,-374.757,8409.857,1196.868,684.851,953.684,283.429,59.143,224.150,-241.769,52.421,-274.363,0,0,0,0,0
41813,-353,418,7756,-127.543,-362.429,8416.614,1197.092,691.214,947.331,-49.714,123.286,67.568,2.244,63.629,-63.536,0,0,0,0,0
41913,-162,410,7843,-117.586,-337.714,8430.015,1193.861,687.452,932.370,99.571,247.143,134.004,-32.313,-37.620,-149.605,0,0,0,0,0
42013,-414,448,7689,-140.386,-298.200,8417.343,1184.024,651.020,936.319,-228.000,395.143,-126.719,-98.374,-364.326,39.489,0,0,0,0,0
42113,-238,437,7868,-140.186,-249.957,8403.414,1184.006,574.038,937.135,2.000,482.429,-139.287,-0.177,-769.819,8.159,0,0,0,0,0
42213,-350,453,7691,-57.629,-253.500,8348.314,939.847,568.900,860.914,825.571,-35.429,-550.996,-2441.585,-51.379,-762.207,0,0,0,0,0
42313,-224,503,7851,-36.329,-247.529,8331.200,918.702,574.587,858.720,213.000,59.714,-171.143,-211.452,56.872,-21.945,0,0,0,0,0
42413,-323,474,7753,-80.929,-236.886,8340.571,853.437,580.918,848.721,-446.000,106.429,93.711,-652.653,63.315,-99.989,0,0,0,0,0
42513,-270,459,7716,-81.300,-227.043,8350.700,853.513,586.759,836.894,-3.714,98.428,101.289,0.765,58.410,-118.270,0,0,0,0,0
42613,-253,451,7810,-72.800,-211.914,8294.814,848.785,590.383,734.219,85.000,151.286,-558.857,-47.281,36.237,-1026.746,0,0,0,0,0
42713,-187,457,7908,-96.186,-198.471,8272.328,828.823,594.732,721.509,-233.857,134.429,-224.863,-199.618,43.488,-127.101,0,0,0,0,0
42813,-252,446,7809,-139.771,-182.529,8263.786,752.098,596.832,723.402,-435.857,159.429,-85.420,-767.256,21.005,18.926,0,0,0,0,0
42913,-261,387,7976,-200.929,-166.871,8227.942,561.182,597.192,672.849,-611.572,156.571,-358.438,-1909.157,3.593,-505.528,0,0,0,0,0
43013,-250,499,8135,-254.600,-148.700,8208.157,340.101,597.824,654.683,-536.714,181.714,-197.852,-2210.812,6.322,-181.666,0,0,0,0,0
43113,-303,454,8123,-273.014,-135.300,8174.014,305.575,600.664,593.007,-184.143,134.000,-341.431,-345.260,28.398,-616.758,0,0,0,0,0
43213,-270,407,8176,-281.114,-122.771,8161.186,297.773,602.695,583.028,-81.000,125.286,-128.286,-78.017,20.310,-99.788,0,0,0,0,0
43313,-314,377,8200,-290.771,-103.971,8155.486,287.546,597.443,580.665,-96.571,188.000,-56.997,-102.274,-52.518,-23.625,0,0,0,0,0
43413,-457,377,8203,-290.786,-89.629,8141.571,287.554,596.766,567.542,-0.143,143.429,-139.146,0.083,-6.774,-131.234,0,0,0,0,0
43513,-295,333,8215,-291.243,-77.814,8141.486,287.535,596.829,567.530,-4.572,118.143,-0.854,-0.192,0.638,-0.115,0,0,0,0,0
43613,-380,388,8236,-286.614,-64.443,8141.943,283.432,596.631,567.593,46.286,133.714,4.570,-41.031,-1.989,0.630,0,0,0,0,0
43713,-183,356,8228,-285.186,-53.943,8142.643,283.698,597.469,567.669,14.286,105.000,7.002,2.665,8.387,0.755,0,0,0,0,0
43813,-320,388,8156,-278.457,-43.071,8148.729,277.132,598.488,565.492,67.285,108.714,60.854,-65.669,10.182,-21.770,0,0,0,0,0
43913,-299,351,8038,-281.929,-32.271,8135.929,275.842,598.680,557.659,-34.714,108.000,-127.998,-12.894,1.927,-78.333,0,0,0,0,0
44013,-375,407,8013,-273.443,0.843,8107.686,263.433,556.466,511.168,84.857,331.143,-282.432,-124.094,-422.139,-464.904,0,0,0,0,0
44113,-314,361,8140,-293.186,31.843,8101.029,208.144,513.569,507.658,-197.428,310.000,-66.567,-552.890,-428.969,-35.106,0,0,0,0,0
44213,-410,373,7994,-303.700,56.243,8075.100,194.759,487.987,464.256,-105.143,244.000,-259.287,-133.844,-255.823,-434.015,0,0,0,0,0
44313,-245,426,7829,-311.486,86.457,8073.429,180.868,442.334,464.928,-77.857,302.143,-16.714,-138.911,-456.533,6.720,0,0,0,0,0
44413,-402,453,7758,-312.014,113.229,8048.514,181.078,405.461,433.364,-5.286,267.714,-249.146,2.096,-368.729,-315.642,0,0,0,0,0
44513,-236,454,7784,-326.443,130.786,8025.257,125.756,393.038,402.125,-144.286,175.572,-232.568,-553.218,-124.234,-312.390,0,0,0,0,0
44613,-253,507,7737,-319.443,151.486,7997.286,115.602,373.672,349.685,70.000,207.000,-279.717,-101.542,-193.651,-524.394,0,0,0,0,0
44713,-257,519,7737,-317.671,171.457,8004.986,115.595,354.953,337.730,17.715,199.714,77.002,-0.068,-187.194,-119.549,0,0,0,0,0
44813,-153,467,7787,-308.071,188.529,8026.771,99.903,339.692,266.207,96.000,170.714,217.856,-156.924,-152.612,-715.237,0,0,0,0,0
44913,-410,508,7673,-307.914,204.414,8035.357,99.733,328.060,244.044,1.572,158.857,85.854,-1.693,-116.319,-221.626,0,0,0,0,0
45013,-170,473,7899,-305.571,213.514,8039.443,101.011,326.546,239.287,23.428,91.000,40.859,12.778,-15.142,-47.575,0,0,0,0,0
45113,-361,478,7804,-304.714,219.386,8035.628,100.280,327.552,240.876,8.571,58.714,-38.145,-7.312,10.062,15.893,0,0,0,0,0
45213,-127,447,8015,-300.429,228.343,8029.014,101.367,325.072,234.921,42.857,89.571,-66.143,10.870,-24.805,-59.548,0,0,0,0,0
45313,-355,435,8031,-302.700,239.514,8020.214,100.781,318.478,222.834,-22.715,111.714,-87.998,-5.857,-65.940,-120.877,0,0,0,0,0
45413,-210,364,8142,-298.486,248.114,8017.186,98.373,313.557,219.695,42.143,86.000,-30.288,-24.084,-49.207,-31.386,0,0,0,0,0
45513,-453,392,7933,-300.800,262.043,8010.143,100.060,297.577,214.313,-23.143,139.286,-70.425,16.878,-159.803,-53.822,0,0,0,0,0
45613,-92,371,8182,-295.271,272.786,8007.957,100.751,287.574,211.753,55.286,107.429,-21.860,6.903,-100.026,-25.593,0,0,0,0,0
45713,-353,388,8067,-297.843,283.900,8005.857,99.891,276.567,210.424,-25.714,111.143,-21.001,-8.601,-110.068,-13.290,0,0,0,0,0
45813,-195,350,8249,-295.186,294.686,8005.872,100.117,263.924,210.441,26.572,107.857,0.146,2.262,-126.435,0.165,0,0,0,0,0
45913,-417,348,8194,-296.971,304.900,8002.257,101.153,251.669,204.934,-17.857,102.143,-36.143,10.367,-122.546,-55.068,0,0,0,0,0
46013,-325,316,8332,-293.343,315.743,8003.614,95.361,235.012,206.790,36.286,108.429,13.569,-57.921,-166.569,18.562,0,0,0,0,0
46113,-366,330,8181,-293.986,327.157,8000.543,95.697,215.188,202.491,-6.429,114.143,-30.713,3.354,-198.241,-42.989,0,0,0,0,0
46213,-278,313,8185,-292.400,336.471,8001.686,95.027,199.706,203.302,15.857,93.143,11.426,-6.703,-154.820,8.105,0,0,0,0,0
46313,-305,327,8096,-293.529,347.029,7999.457,94.700,178.240,201.392,-11.286,105.571,-22.285,-3.267,-214.665,-19.101,0,0,0,0,0
46413,-387,352,8025,-294.029,355.671,7997.314,95.099,162.947,200.308,-5.000,86.429,-21.426,3.990,-152.928,-10.841,0,0,0,0,0
46513,-217,387,8084,-293.214,364.629,7995.929,95.510,146.344,199.366,8.143,89.572,-13.857,4.111,-166.029,-9.422,0,0,0,0,0
46613,-350,429,7871,-293.914,374.543,7992.357,95.744,125.356,199.332,-7.000,99.143,-35.718,2.338,-209.879,-0.333,0,0,0,0,0
46713,-56,429,7934,-289.071,382.614,7994.943,99.025,109.397,197.375,48.428,80.714,25.859,32.818,-159.590,-19.574,0,0,0,0,0
46813,-275,471,7748,-289.243,390.743,7994.271,98.991,93.345,198.132,-1.714,81.286,-6.714,-0.349,-160.516,7.575,0,0,0,0,0
46913,-153,464,7880,-286.371,396.686,7996.843,99.981,84.122,195.446,28.714,59.428,25.713,9.902,-92.233,-26.860,0,0,0,0,0
47013,-343,472,7939,-289.929,402.914,7999.314,97.471,72.528,193.597,-35.571,62.286,24.717,-25.095,-115.943,-18.496,0,0,0,0,0
47113,-169,477,7931,-286.571,408.471,8003.014,97.531,62.379,189.743,33.571,55.572,36.997,0.603,-101.493,-38.543,0,0,0,0,0
47213,-336,444,7662,-289.743,409.829,7998.057,95.456,62.103,194.006,-31.714,13.571,-49.570,-20.758,-2.758,42.637,0,0,0,0,0
47313,-225,488,7858,-285.843,408.300,8000.414,92.395,58.753,191.269,39.000,-15.286,23.569,-30.605,-33.501,-27.376,0,0,0,0,0
47413,-366,469,7665,-289.043,409.971,7996.372,91.230,58.791,195.283,-32.000,16.714,-40.425,-11.656,0.388,40.139,0,0,0,0,0
47513,-223,433,7985,-286.871,411.514,7997.600,90.966,57.952,194.936,21.714,15.428,12.285,-2.632,-8.390,-3.463,0,0,0,0,0
47613,-221,430,7882,-287.600,411.657,7992.457,90.229,57.985,193.161,-7.286,1.429,-51.431,-7.377,0.331,-17.749,0,0,0,0,0
47713,-213,419,8029,-286.671,411.000,7989.700,90.656,57.637,191.233,9.286,-6.571,-27.568,4.275,-3.486,-19.283,0,0,0,0,0
47813,-181,363,8087,-287.143,411.686,7987.100,90.017,56.770,188.638,-4.714,6.857,-26.001,-6.388,-8.672,-25.954,0,0,0,0,0
47913,-372,388,8139,-286.471,413.300,7985.986,89.203,54.418,187.503,6.714,16.143,-11.143,-8.144,-23.518,-11.343,0,0,0,0,0
48013,-324,358,8238,-286.029,413.300,7984.614,88.938,54.418,185.291,4.429,0.000,-13.716,-2.648,-0.000,-22.124,0,0,0,0,0
48113,-396,344,8227,-286.786,413.271,7983.857,89.643,54.454,184.187,-7.571,-0.286,-7.573,7.046,0.358,-11.036,0,0,0,0,0
48213,-410,387,8265,-289.000,414.729,7982.500,90.738,52.325,181.745,-22.143,14.572,-13.569,10.952,-21.288,-24.427,0,0,0,0,0
48313,-338,323,8195,-289.643,413.829,7983.057,90.923,53.343,182.334,-6.429,-9.000,5.571,1.853,10.183,5.898,0,0,0,0,0
48413,-368,391,8300,-288.986,413.843,7986.128,90.185,53.337,185.804,6.571,0.143,30.713,-7.379,-0.062,34.692,0,0,0,0,0
48513,-367,339,8287,-290.157,413.614,7989.571,90.657,53.622,189.085,-11.714,-2.286,34.429,4.719,2.852,32.813,0,0,0,0,0
48613,-282,371,8303,-288.114,413.457,7995.357,89.195,53.730,192.362,20.428,-1.571,57.856,-14.622,1.084,32.773,0,0,0,0,0
48713,-248,379,8077,-289.143,412.671,7996.471,88.307,53.826,192.606,-10.286,-7.857,11.143,-8.881,0.959,2.436,0,0,0,0,0
48813,-264,419,8137,-287.871,412.686,8001.914,88.019,53.828,191.111,12.714,0.143,54.429,-2.883,0.015,-14.948,0,0,0,0,0
48913,-260,431,7969,-289.271,412.986,8003.714,86.776,53.871,190.197,-14.000,3.000,18.003,-12.426,0.427,-9.140,0,0,0,0,0
49013,-380,455,7947,-288.786,413.086,8007.400,86.170,53.942,186.527,4.857,1.000,36.855,-6.065,0.714,-36.700,0,0,0,0,0
49113,-193,422,7960,-288.143,412.871,8008.714,86.712,53.876,185.863,6.429,-2.143,13.145,5.426,-0.657,-6.639,0,0,0,0,0
49213,-306,475,7816,-287.514,413.186,8010.500,86.421,54.173,183.386,6.286,3.143,17.856,-2.917,2.965,-24.771,0,0,0,0,0
49313,-235,447,7763,-287.671,412.386,8009.243,86.315,53.246,184.771,-1.571,-8.000,-12.573,-1.057,-9.267,13.855,0,0,0,0,0
49413,-320,470,7802,-287.629,412.329,8009.943,86.298,53.182,183.890,0.428,-0.571,7.002,-0.168,-0.641,-8.814,0,0,0,0,0
49513,-241,459,7783,-287.214,412.329,8010.900,86.451,53.182,182.527,4.143,0.000,9.570,1.531,0.000,-13.631,0,0,0,0,0
49613,-162,431,7885,-285.914,412.043,8011.971,87.632,53.027,181.562,13.000,-2.857,10.713,11.809,-1.550,-9.648,0,0,0,0,0
49713,-174,437,7834,-285.729,411.757,8010.914,87.855,52.838,182.378,1.857,-2.857,-10.571,2.229,-1.895,8.159,0,0,0,0,0
49813,-180,392,7894,-284.700,410.986,8012.128,88.662,52.726,181.309,10.286,-7.714,12.144,8.066,-1.115,-10.686,0,0,0,0,0
49913,-262,466,7795,-284.714,412.114,8009.543,88.658,53.045,183.088,-0.143,11.286,-25.854,-0.037,3.190,17.787,0,0,0,0,0
50013,-205,421,7969,-284.071,411.000,8007.171,89.069,52.018,182.522,6.429,-11.143,-23.716,4.116,-10.276,-5.661,0,0,0,0,0
50113,-313,411,7932,-284.214,410.386,8004.443,89.108,51.759,182.197,-1.429,-6.143,-27.285,0.383,-2.582,-3.246,0,0,0,0,0
50213,-214,357,8025,-283.414,409.671,8002.286,89.482,52.145,181.044,8.000,-7.143,-21.572,3.746,3.854,-11.537,0,0,0,0,0
50313,-441,357,8043,-285.229,409.386,8000.043,91.352,52.377,179.547,-18.143,-2.857,-22.427,18.697,2.325,-14.970,0,0,0,0,0
50413,-296,282,8242,-282.929,408.029,8000.600,88.995,54.391,180.235,23.000,-13.571,5.571,-23.573,20.136,6.881,0,0,0,0,0
50513,-510,318,8237,-286.000,407.814,8000.914,92.979,54.715,180.627,-30.714,-2.143,3.140,39.845,3.238,3.924,0,0,0,0,0
50613,-240,299,8457,-284.000,406.543,8004.071,92.440,56.175,186.543,20.000,-12.715,31.572,-5.393,14.602,59.159,0,0,0,0,0
50713,-407,325,8217,-287.200,406.100,8003.914,92.765,56.691,186.359,-32.000,-4.428,-1.572,3.248,5.165,-1.842,0,0,0,0,0
50813,-240,325,8287,-286.057,405.200,8005.786,92.846,57.466,188.522,11.429,-9.000,18.716,0.816,7.750,21.631,0,0,0,0,0
50913,-417,354,8087,-287.743,405.243,8006.486,94.128,57.427,188.731,-16.857,0.428,7.002,12.820,-0.393,2.092,0,0,0,0,0
51013,-287,354,8035,-286.486,404.486,8006.800,93.540,57.747,188.760,12.571,-7.571,3.140,-5.879,3.203,0.289,0,0,0,0,0
51113,-302,387,8002,-286.314,404.857,8004.829,93.501,57.550,188.078,1.714,3.714,-19.712,-0.396,-1.976,-6.820,0,0,0,0,0
51213,-331,401,7801,-285.186,405.257,8002.071,92.472,57.424,189.625,11.286,4.000,-27.573,-10.286,-1.256,15.468,0,0,0,0,0
51313,-298,411,7781,-285.943,405.043,8001.386,92.357,57.374,190.335,-7.572,-2.143,-6.855,-1.152,-0.498,7.101,0,0,0,0,0
51413,-395,436,7828,-285.843,404.800,8002.386,92.235,57.207,189.234,1.000,-2.429,10.000,-1.220,-1.678,-11.006,0,0,0,0,0
51513,-296,377,7889,-286.700,403.700,8003.886,92.046,56.990,187.909,-8.571,-11.000,15.000,-1.886,-2.167,-13.255,0,0,0,0,0
51613,-262,432,7862,-286.829,402.629,8005.671,92.005,55.729,185.948,-1.286,-10.714,17.856,-0.409,-12.611,-19.610,0,0,0,0,0
51713,-114,476,7818,-284.786,402.014,8006.829,94.206,54.670,184.519,20.429,-6.143,11.572,22.009,-10.592,-14.290,0,0,0,0,0
51813,-338,451,7685,-287.429,401.786,8005.372,93.060,54.430,186.640,-26.429,-2.286,-14.570,-11.462,-2.393,21.208,0,0,0,0,0
51913,-102,463,7921,-283.029,401.143,8008.914,94.432,53.429,182.607,44.000,-6.429,35.425,13.718,-10.017,-40.325,0,0,0,0,0
52013,-452,481,7564,-287.057,401.257,8004.128,95.533,53.590,189.678,-40.286,1.143,-47.856,11.010,1.619,70.708,0,0,0,0,0
52113,-168,478,7994,-284.300,401.257,8006.843,96.142,53.590,188.148,27.571,0.000,27.144,6.093,0.000,-15.300,0,0,0,0,0
52213,-412,473,7716,-288.371,401.629,8002.571,95.427,53.995,191.282,-40.714,3.714,-42.715,-7.156,4.043,31.342,0,0,0,0,0
52313,-195,442,8026,-286.086,401.729,8002.500,95.719,54.063,191.272,22.857,1.000,-0.713,2.925,0.681,-0.097,0,0,0,0,0
52413,-323,435,8050,-287.700,402.743,8001.186,95.374,54.012,190.624,-16.143,10.143,-13.145,-3.446,-0.513,-6.481,0,0,0,0,0
52513,-93,375,8134,-282.557,402.500,8004.057,96.026,54.097,191.089,51.429,-2.429,28.716,6.518,0.859,4.646,0,0,0,0,0
52613,-287,509,7883,-285.343,404.471,7999.786,93.246,55.412,190.404,-27.857,19.714,-42.715,-27.803,13.147,-6.847,0,0,0,0,0
52713,-277,441,7559,-284.257,405.229,7992.529,92.894,55.544,197.262,10.857,7.571,-72.568,-3.523,1.317,68.574,0,0,0,0,0
52813,-345,476,7919,-286.400,407.029,7987.814,92.539,55.766,195.006,-21.429,18.000,-47.144,-3.543,2.222,-22.553,0,0,0,0,0
52913,-243,971,8408,-283.914,415.929,7990.872,91.327,86.745,199.833,24.857,89.000,30.571,-12.125,309.786,48.262,0,0,0,0,0
53013,-323,1270,7982,-283.886,429.557,7985.872,91.314,132.728,195.568,0.286,136.286,-50.000,-0.126,459.836,-42.648,0,0,0,0,0
53113,-130,1633,8067,-280.514,448.171,7984.243,92.569,194.469,194.407,33.714,186.143,-16.289,12.541,617.411,-11.605,1,0,0,0,0
53213,-345,2115,7982,-281.471,473.914,7981.343,92.883,276.740,192.899,-9.572,257.429,-28.999,3.149,822.703,-15.081,0,0,0,0,0
53313,-175,1756,7887,-279.614,494.329,7978.357,93.691,315.185,192.719,18.571,204.143,-29.858,8.071,384.457,-1.804,0,0,0,0,0
53413,-393,2158,7832,-279.700,520.129,7975.600,93.791,371.385,193.411,-0.857,258.000,-27.568,1.009,561.996,6.923,0,0,0,0,0
53513,-286,2219,7481,-280.686,546.300,7966.986,93.489,422.161,201.644,-9.857,261.714,-86.143,-3.020,507.756,82.334,0,0,0,0,0
53613,-357,2151,7649,-280.786,570.900,7963.814,93.567,462.822,204.849,-1.000,246.000,-31.714,0.778,406.617,32.050,0,0,0,0,0
53713,-354,1923,7688,-285.043,592.243,7960.300,89.952,489.467,207.425,-42.571,213.428,-35.146,-36.148,266.448,25.753,0,0,0,0,0
53813,-420,1406,7811,-287.114,605.600,7961.200,91.356,498.648,206.637,-20.714,133.571,9.004,14.035,91.808,-7.879,0,0,0,0,0
53913,-410,725,7828,-290.786,609.329,7960.457,91.056,498.551,207.020,-36.714,37.286,-7.432,-2.999,-0.970,3.837,0,0,0,0,0
54013,-593,597,8017,-294.357,611.114,7961.571,97.695,498.280,207.112,-35.714,17.857,11.143,66.387,-2.713,0.914,0,0,0,0,0
54113,-457,684,7996,-298.471,614.071,7962.500,98.391,498.089,207.118,-41.143,29.572,9.287,6.960,-1.905,0.065,0,0,0,0,0
54213,-386,1121,8475,-299.186,623.743,7974.114,98.841,501.256,212.663,-7.143,96.714,116.143,4.503,31.664,55.442,0,0,0,0,0
54313,-293,1450,8418,-300.157,637.486,7982.114,98.440,510.449,218.595,-9.714,137.429,80.000,-4.006,91.933,59.319,0,0,0,0,0
54413,-173,1591,8342,-297.400,653.514,7991.786,99.257,522.383,219.326,27.571,160.286,96.714,8.167,119.341,7.310,0,0,0,0,0
54513,-316,1275,7702,-298.729,665.543,7987.743,98.874,526.842,222.005,-13.286,120.286,-40.430,-3.831,44.589,26.797,0,0,0,0,0
54613,-331,1133,8442,-300.300,675.586,7995.743,98.500,528.952,228.058,-15.714,100.428,80.000,-3.744,21.105,60.527,0,0,0,0,0
54713,-137,208,8312,-299.214,672.571,7999.786,99.865,531.003,231.100,10.857,-30.143,40.430,13.657,20.508,30.419,0,0,0,0,0
54813,-976,732,7096,-310.571,677.843,7985.628,127.232,529.734,254.494,-113.571,52.714,-141.572,273.662,-12.694,233.938,0,0,0,0,0
54913,-662,324,7740,-314.714,676.929,7979.929,133.720,530.288,255.461,-41.429,-9.142,-56.997,64.887,5.544,9.675,0,0,0,0,0
55013,-1591,1117,7063,-332.814,687.771,7963.143,202.045,531.415,275.750,-181.000,108.428,-167.856,683.251,11.265,202.888,0,0,0,1,0
55113,-464,1179,7791,-333.786,699.700,7956.914,202.510,532.934,274.642,-9.714,119.286,-62.290,4.644,15.189,-11.084,0,0,0,0,0
55213,1645,-2,8885,-304.429,694.143,7965.771,309.843,538.168,293.766,293.571,-55.571,88.574,1073.328,52.341,191.245,0,0,0,0,0
55313,-1888,1503,8312,-326.571,711.000,7967.443,362.381,544.719,295.394,-221.429,168.571,16.714,525.388,65.514,16.278,0,0,0,0,0
55413,892,401,8462,-308.571,711.143,7969.757,390.109,544.637,298.607,180.000,1.429,23.145,277.274,-0.826,32.135,0,0,0,0,0
55513,-856,321,8594,-315.557,710.886,7974.143,395.434,544.816,305.412,-69.857,-2.571,43.857,53.256,1.798,68.042,0,0,0,0,0
55613,-746,760,7366,-322.186,716.443,7960.757,398.692,543.303,311.184,-66.286,55.571,-133.857,32.575,-15.133,57.725,0,0,0,0,0
55713,-120,511,6866,-320.357,718.329,7943.457,399.321,542.357,336.845,18.286,18.857,-173.003,6.291,-9.463,256.609,0,0,0,0,0
55813,-485,687,7533,-323.514,722.157,7934.829,399.736,541.175,339.502,-31.571,38.286,-86.284,4.154,-11.818,26.572,0,0,0,0,0
55913,-117,1034,7712,-321.471,730.771,7931.157,400.421,541.271,340.501,20.428,86.143,-36.714,6.842,0.960,9.988,0,0,0,0,0
56013,-788,1306,8077,-327.300,742.929,7933.014,404.182,544.488,340.936,-58.286,121.572,18.569,37.613,32.169,4.356,0,0,0,0,0
56113,-668,897,7503,-334.086,749.714,7926.486,405.854,543.405,344.712,-67.857,67.857,-65.283,16.722,-10.831,37.754,0,0,0,0,0
56213,-167,768,7747,-332.100,753.900,7925.500,406.326,542.400,345.125,19.857,41.857,-9.858,4.723,-10.047,4.129,0,0,0,0,0
56313,-359,360,7668,-333.871,752.657,7924.143,406.169,543.201,345.947,-17.714,-12.429,-13.569,-1.569,8.009,8.222,0,0,0,0,0
56413,-587,-69,8117,-337.686,744.957,7928.643,407.274,550.919,346.377,-38.143,-77.000,45.000,11.041,77.177,4.304,0,0,0,0,0
56513,-292,154,8408,-338.414,740.600,7937.571,407.145,554.358,350.538,-7.286,-43.572,89.282,-1.281,34.396,41.610,0,0,0,0,0
56613,-546,398,8209,-343.900,740.129,7942.200,407.319,554.635,351.950,-54.857,-4.714,46.289,1.731,2.770,14.116,0,0,0,0,0
56713,-70,429,8208,-342.414,740.014,7947.543,408.124,554.699,353.104,14.857,-1.143,53.428,8.059,0.634,11.538,0,0,0,0,0
56813,-45,624,8093,-340.486,743.329,7950.386,409.205,553.301,353.462,19.286,33.143,28.428,10.804,-13.980,3.584,0,0,0,0,0
56913,-207,788,8066,-339.700,747.929,7954.257,409.408,552.313,353.223,7.857,46.000,38.716,2.027,-9.871,-2.391,0,0,0,0,0
57013,-54,572,7576,-337.543,750.086,7948.643,410.508,551.326,356.056,21.572,21.571,-56.143,11.004,-9.871,28.330,0,0,0,0,0
57113,457,-165,7842,-326.543,741.857,7947.357,421.195,560.547,356.276,110.000,-82.286,-12.861,106.876,92.209,2.202,0,0,0,0,0
57213,-3027,1172,6510,-366.729,753.500,7925.714,528.950,560.896,394.832,-401.857,116.429,-216.426,1077.544,3.491,385.559,0,0,0,0,0
57313,736,815,6161,-349.914,760.043,7898.829,544.792,558.901,446.611,168.143,65.428,-268.857,158.419,-19.954,517.794,0,0,0,0,0
57413,-415,214,7108,-351.614,759.071,7882.628,544.806,559.789,454.369,-17.000,-9.714,-162.002,0.147,8.884,77.578,0,0,0,0,0
57513,-1808,344,7974,-370.157,759.443,7878.872,571.325,559.505,452.507,-185.428,3.715,-37.568,265.190,-2.842,-18.623,0,0,0,0,0
57613,255,576,8894,-363.086,763.400,7885.114,575.937,557.209,463.325,70.714,39.572,62.427,46.120,-22.957,108.181,0,0,0,0,0
57713,-152,800,8790,-359.443,770.186,7893.300,576.454,554.716,474.054,36.429,67.857,81.855,5.169,-24.935,107.287,0,0,0,0,0
57813,-453,1267,7949,-362.486,783.643,7888.471,576.378,555.179,471.735,-30.428,134.572,-48.286,-0.764,4.630,-23.190,0,0,0,0,0
57913,-93,1143,7287,-357.857,794.914,7877.043,577.222,554.350,476.454,46.286,112.714,-114.282,8.441,-8.286,47.190,0,0,0,0,0
58013,-573,867,7290,-361.943,802.243,7866.400,577.718,551.858,481.104,-40.857,73.286,-106.431,4.960,-24.921,46.508,0,0,0,0,0
58113,-70,643,7861,-358.629,805.900,7864.386,578.717,549.939,480.828,33.143,36.572,-20.142,9.990,-19.190,-2.768,0,0,0,0,0
58213,-110,728,8006,-355.471,810.571,7867.314,579.461,547.865,481.057,31.571,46.714,29.287,7.444,-20.743,2.292,0,0,0,0,0
58313,-175,485,8232,-353.714,811.629,7873.757,579.819,547.164,482.874,17.571,10.572,64.429,3.580,-7.010,18.175,0,0,0,0,0
58413,26,771,8900,-347.700,816.414,7889.071,581.541,545.320,497.944,60.143,47.857,153.140,17.214,-18.444,150.699,0,0,0,0,0
58513,-254,716,8368,-347.100,821.257,7895.914,581.615,542.896,501.177,6.000,48.428,68.428,0.746,-24.240,32.328,0,0,0,0,0
58613,579,442,8232,-335.086,821.400,7901.200,591.846,542.794,502.740,120.143,1.429,52.861,102.301,-1.012,15.631,0,0,0,0,0
58713,105,550,7578,-331.957,822.457,7897.771,593.582,542.192,504.112,31.286,10.571,-34.287,17.367,-6.019,13.722,0,0,0,0,0
58813,-225,105,7531,-330.343,817.514,7895.571,593.717,547.111,505.371,16.143,-49.429,-22.002,1.349,49.186,12.583,0,0,0,0,0
58913,-346,104,7747,-333.829,812.386,7893.086,593.082,552.070,505.667,-34.857,-51.285,-24.854,-6.348,49.593,2.967,0,0,0,0,0
59013,-400,327,7977,-333.086,810.186,7898.986,592.966,553.691,504.201,7.429,-22.000,58.999,-1.160,16.207,-14.669,0,0,0,0,0
59113,-101,288,7881,-332.129,807.471,7897.372,593.286,555.775,504.075,9.572,-27.143,-16.143,3.197,20.835,-1.259,0,0,0,0,0
59213,-261,624,8236,-329.971,809.629,7904.800,593.266,554.764,505.177,21.571,21.572,74.282,-0.198,-10.103,11.028,0,0,0,0,0
59313,16,180,8270,-326.957,805.886,7908.286,594.479,558.106,506.841,30.143,-37.429,34.858,12.128,33.414,16.633,0,0,0,0,0
59413,-269,248,8001,-326.186,803.214,7907.586,594.519,560.318,506.678,7.715,-26.714,-6.997,0.397,22.120,-1.624,0,0,0,0,0
59513,-237,-3,7822,-328.243,797.814,7903.128,593.957,566.209,506.039,-20.572,-54.000,-44.575,-5.615,58.915,-6.394,0,0,0,0,0
59613,-361,36,7740,-329.300,791.057,7901.086,593.949,572.404,506.405,-10.571,-67.571,-20.425,-0.087,61.949,3.656,0,0,0,0,0
59713,-407,282,8007,-331.157,788.786,7907.486,593.986,574.102,504.869,-18.571,-22.714,63.999,0.369,16.974,-15.351,0,0,0,0,0
59813,-265,304,7925,-330.014,786.329,7907.571,594.035,575.800,504.872,11.429,-24.572,0.854,0.492,16.990,0.024,0,0,0,0,0
59913,-453,60,7995,-333.014,773.314,7901.671,594.118,581.744,501.391,-30.000,-130.143,-58.999,0.833,59.437,-34.813,0,0,0,0,0
60013,-432,-132,7764,-334.571,753.286,7898.557,594.233,588.396,501.559,-15.572,-200.286,-31.143,1.145,66.514,1.684,0,0,0,0,0
60113,-597,-4,8290,-341.243,729.900,7901.743,594.520,585.491,503.324,-66.714,-233.857,31.855,2.872,-29.049,17.649,0,0,0,0,0
60213,-457,148,7923,-342.843,701.800,7900.900,594.678,565.190,503.238,-16.000,-281.000,-8.428,1.587,-203.005,-0.857,0,0,0,0,0
60313,-480,123,8241,-347.200,678.471,7905.957,594.550,554.802,504.849,-43.571,-233.286,50.571,-1.284,-103.882,16.110,0,0,0,0,0
60413,-563,-57,8110,-349.629,646.829,7909.929,595.079,532.222,505.345,-24.286,-316.429,39.717,5.291,-225.803,4.958,0,0,0,0,0
60513,-428,85,7944,-351.657,616.343,7916.543,595.101,501.527,502.711,-20.286,-304.857,66.143,0.216,-306.945,-26.342,0,0,0,0,0
60613,-602,-26,7819,-355.157,585.243,7918.971,595.842,472.029,501.822,-35.000,-311.000,24.282,7.412,-294.983,-8.885,0,0,0,0,0
60713,-322,-88,7955,-354.700,556.514,7922.786,595.855,450.439,501.066,4.571,-287.286,38.145,0.129,-215.898,-7.560,0,0,0,0,0
60813,-586,46,8195,-357.071,537.086,7928.271,596.440,442.642,501.914,-23.714,-194.286,54.858,5.852,-77.968,8.474,0,0,0,0,0
60913,-655,140,8326,-360.571,528.729,7935.386,597.458,444.534,503.967,-35.000,-83.571,71.143,10.183,18.917,20.536,0,0,0,0,0
61013,-305,-21,8134,-356.457,519.900,7937.057,596.835,449.203,504.429,41.143,-88.286,16.714,-6.235,46.687,4.617,0,0,0,0,0
61113,-400,80,8145,-355.643,511.271,7939.186,596.736,451.761,504.987,8.143,-86.286,21.284,-0.988,25.587,5.583,0,0,0,0,0
61213,-10,91,8045,-350.271,496.557,7933.043,598.129,448.424,501.032,53.714,-147.143,-61.426,13.932,-33.373,-39.554,0,0,0,0,0
61313,-4,-60,8510,-346.143,474.986,7934.357,599.506,438.244,502.421,41.286,-215.714,13.140,13.769,-101.805,13.891,0,0,0,0,0
61413,-163,30,7912,-346.000,452.686,7928.214,599.548,420.233,500.022,1.429,-223.000,-61.426,0.421,-180.101,-23.986,0,0,0,0,0
61513,-410,-780,7961,-347.343,423.329,7931.914,599.585,433.338,499.292,-13.429,-293.571,36.997,0.368,131.044,-7.299,0,0,0,0,0
61613,-1055,-1381,7107,-357.686,387.414,7912.843,605.430,475.190,504.909,-103.428,-359.143,-190.713,58.448,418.523,56.169,0,0,0,0,0
61713,-1005,-1507,7876,-370.086,362.914,7906.614,609.657,525.371,502.631,-124.000,-245.000,-62.285,42.273,501.804,-22.783,0,1,0,0,0
61813,-928,-337,7995,-369.400,347.643,7919.457,609.002,529.937,493.151,6.857,-152.714,128.428,-6.552,45.664,-94.804,0,0,0,0,0
61913,132,507,8561,-358.057,350.257,7931.186,610.838,530.265,498.477,113.429,26.143,117.285,18.362,3.282,53.266,0,0,0,0,0
62013,-458,507,8123,-341.871,341.543,7946.329,592.695,522.549,487.861,161.857,-87.143,151.431,-181.431,-77.160,-106.165,0,0,0,0,0
62113,-627,-7,8161,-344.200,324.600,7951.614,593.490,514.283,488.153,-23.286,-169.428,52.856,7.949,-82.662,2.927,0,0,0,0,0
62213,-420,406,7515,-373.700,330.429,7932.043,543.061,512.859,477.691,-295.000,58.286,-195.713,-504.293,-14.245,-104.629,0,0,0,0,0
62313,-223,510,7871,-349.914,316.243,7925.743,511.776,493.601,475.541,237.857,-141.857,-63.003,-312.844,-192.579,-21.493,0,0,0,0,0
62413,42,572,8193,-362.057,318.686,7921.900,491.862,494.436,472.268,-121.429,24.428,-38.428,-199.143,8.358,-32.734,0,0,0,0,0
62513,-94,395,8274,-351.171,319.743,7917.329,489.235,494.519,467.262,108.857,10.572,-45.713,-26.272,0.829,-50.057,0,0,0,0,0
62613,486,357,8432,-333.571,313.986,7932.557,496.816,491.698,466.416,176.000,-57.571,152.285,75.812,-28.212,-8.463,0,0,0,0,0
62713,-61,186,8369,-332.729,309.343,7954.029,497.228,491.350,451.169,8.429,-46.429,214.717,4.115,-3.480,-152.470,0,0,0,0,0
62813,-211,363,7699,-328.814,304.714,7956.400,497.092,489.293,449.382,39.143,-46.286,23.711,-1.357,-20.576,-17.866,0,0,0,0,0
62913,-65,-267,7610,-328.071,286.129,7954.943,497.447,485.935,450.337,7.429,-185.857,-14.570,3.547,-33.573,9.545,0,0,0,0,0
63013,-186,827,7254,-319.471,279.286,7943.186,494.617,474.770,457.680,86.000,-68.429,-117.573,-28.300,-111.654,73.433,0,0,0,0,0
63113,759,147,7922,-299.086,268.571,7949.171,509.029,469.138,454.614,203.857,-107.143,59.858,144.124,-56.317,-30.664,0,0,0,0,0
63213,-311,0,7507,-301.143,257.600,7945.743,508.782,466.302,457.024,-20.571,-109.714,-34.287,-2.471,-28.364,24.104,0,0,0,0,0
63313,-113,47,7983,-297.629,253.129,7950.243,509.220,466.799,455.816,35.143,-44.714,45.000,4.376,4.971,-12.077,0,0,0,0,0
63413,-703,267,7788,-299.286,257.929,7945.543,510.346,465.187,455.769,-16.571,48.000,-46.997,11.266,-16.123,-0.475,0,0,0,0,0
63513,-116,274,7301,-296.771,259.643,7929.729,510.809,465.022,458.644,25.143,17.143,-158.145,4.630,-1.651,28.756,0,0,0,0,0
63613,-140,243,8561,-290.971,257.429,7934.757,510.251,464.726,463.582,58.000,-22.143,50.288,-5.580,-2.952,49.374,0,0,0,0,0
63713,-829,389,7827,-301.814,256.857,7929.314,513.494,464.540,462.577,-108.429,-5.714,-54.429,32.431,-1.867,-10.045,0,0,0,0,0
63813,144,181,8037,-299.114,250.529,7928.514,515.331,462.508,462.342,27.000,-63.286,-8.003,18.369,-20.316,-2.355,0,0,0,0,0
63913,93,201,7928,-294.829,242.143,7926.543,517.323,457.986,462.046,42.857,-83.857,-19.712,19.919,-45.216,-2.964,0,0,0,0,0
64013,262,462,8434,-290.314,240.571,7938.800,520.772,457.040,463.960,45.143,-15.714,122.568,34.490,-9.467,19.148,0,0,0,0,0
64113,109,-786,8516,-295.286,231.700,7948.429,515.246,470.650,468.820,-49.714,-88.714,96.289,-55.260,136.106,48.595,0,0,0,0,0
64213,-75,-1018,9407,-253.114,200.414,7989.814,397.227,479.805,467.881,421.714,-312.857,413.857,-1180.188,91.545,-9.386,0,0,0,0,0
64313,-1301,-209,8122,-282.214,185.786,8017.829,398.313,476.442,413.035,-291.000,-146.286,280.142,10.853,-33.625,-548.459,0,0,0,0,0
64413,93,595,7559,-274.957,191.229,8024.271,400.449,478.904,402.168,72.571,54.429,64.429,21.366,24.611,-108.679,0,0,0,0,0
64513,323,45,7522,-244.514,186.957,8017.814,361.892,478.855,406.528,304.429,-42.714,-64.570,-385.568,-0.482,43.603,0,0,0,0,0
64613,-233,-283,7619,-251.486,174.686,7999.600,356.868,479.734,395.270,-69.714,-122.714,-182.144,-50.242,8.787,-112.581,0,0,0,0,0
64713,-413,-728,7582,-255.214,152.857,7982.343,357.173,485.513,386.661,-37.286,-218.286,-172.573,3.044,57.790,-86.086,0,0,0,0,0
64813,-951,-643,7892,-262.329,125.571,7981.529,365.895,475.703,386.790,-71.143,-272.857,-8.140,87.219,-98.096,1.294,0,0,0,0,0
64913,-882,-683,7922,-273.600,99.486,7990.600,372.596,469.218,377.736,-112.714,-260.857,90.713,67.015,-64.858,-90.548,0,0,0,0,0
65013,-890,-172,8224,-278.129,84.643,8003.943,378.093,461.066,369.151,-45.286,-148.429,133.428,54.973,-81.511,-85.847,0,0,0,0,0
65113,-325,82,8428,-281.771,76.629,8012.043,377.298,456.141,372.134,-36.429,-80.143,81.001,-7.952,-49.257,29.832,0,0,0,0,0
65213,282,175,8103,-276.171,68.729,8013.429,382.677,449.532,372.290,56.000,-79.000,13.857,53.787,-66.087,1.555,0,0,0,0,0
65313,204,335,7797,-270.757,66.586,8007.214,386.730,447.897,372.220,54.143,-21.429,-62.144,40.528,-16.349,-0.698,0,0,0,0,0
65413,-139,354,7876,-273.114,60.629,7992.586,385.414,441.212,356.641,-23.571,-59.571,-146.284,-13.153,-66.852,-155.787,0,0,0,0,0
65513,-482,677,7737,-276.371,60.071,7983.571,386.202,440.408,355.009,-32.571,-5.571,-90.146,7.873,-8.040,-16.320,0,0,0,0,0
65613,-125,829,7483,-286.429,65.600,7972.872,372.727,447.539,358.629,-100.571,55.286,-106.997,-134.744,71.311,36.201,0,0,0,0,0
65713,-583,832,7761,-296.257,69.629,7975.486,371.344,453.116,356.401,-98.286,40.286,26.143,-13.828,55.767,-22.279,0,0,0,0,0
65813,-861,757,7982,-305.343,78.943,7981.929,377.224,460.390,352.361,-90.857,93.143,64.429,58.795,72.743,-40.398,0,0,0,0,0
65913,-361,423,8087,-305.557,83.500,7986.786,377.251,462.191,351.432,-2.143,45.571,48.569,0.273,18.006,-9.297,0,0,0,0,0
66013,-551,238,8059,-307.714,82.229,7987.957,378.215,461.641,351.534,-21.572,-12.714,11.714,9.644,-5.493,1.021,0,0,0,0,0
66113,-412,-205,8464,-312.157,75.186,7996.286,377.587,462.208,355.782,-44.428,-70.429,83.286,-6.282,5.673,42.479,0,0,0,0,0
66213,114,236,8611,-306.800,69.643,8001.643,380.920,457.900,362.118,53.571,-55.429,53.574,33.333,-43.083,63.360,0,0,0,0,0
66313,-189,1212,7590,-309.729,84.386,7991.929,379.212,477.414,363.905,-29.286,147.429,-97.144,-17.088,195.135,17.872,0,0,0,0,0
66413,-805,5,7983,-317.386,80.914,7991.671,383.697,477.095,363.905,-76.571,-34.714,-2.573,44.854,-3.189,-0.002,0,0,0,0,0
66513,-995,-167,8391,-328.214,78.571,7999.800,391.884,477.903,366.371,-108.286,-23.429,81.284,81.872,8.083,24.659,0,0,0,0,0
66613,-950,-19,8067,-336.629,77.786,8004.471,398.761,478.018,365.111,-84.143,-7.857,46.714,68.766,1.146,-12.599,0,0,0,0,0
66713,11,-59,8000,-330.657,72.914,8004.372,400.787,477.649,365.111,59.714,-48.714,-0.996,20.261,-3.686,0.002,0,0,0,0,0
66813,-366,396,8239,-332.100,74.229,8008.857,400.730,478.409,366.036,-14.429,13.143,44.854,-0.573,7.601,9.250,0,0,0,0,0
66913,-194,772,7744,-328.400,84.400,8005.271,400.792,485.515,367.381,37.000,101.714,-35.854,0.624,71.055,13.452,0,0,0,0,0
67013,-376,436,8214,-327.600,92.514,8011.700,400.640,486.575,367.040,8.000,81.143,64.287,-1.517,10.608,-3.412,0,0,0,0,0
67113,-396,-91,7860,-324.729,91.271,8005.557,399.418,486.931,365.927,28.714,-12.429,-61.431,-12.227,3.559,-11.125,0,0,0,0,0
67213,-383,235,7163,-323.671,92.514,7994.700,399.164,487.185,379.248,10.572,12.429,-108.569,-2.537,2.542,133.206,0,0,0,0,0
67313,-62,134,7631,-317.700,92.671,7985.986,399.907,487.197,380.495,59.714,1.571,-87.144,7.426,0.115,12.466,0,0,0,0,0
67413,-605,562,7828,-318.300,101.514,7981.957,400.305,490.010,380.653,-6.000,88.429,-40.288,3.989,28.126,1.585,0,0,0,0,0
67513,-753,1816,8051,-322.943,126.243,7983.486,403.423,530.553,380.713,-46.429,247.286,15.288,31.180,405.432,0.593,0,0,0,0,0
67613,578,1712,8390,-306.086,151.071,7991.643,415.872,562.549,383.210,168.571,248.286,81.572,124.486,319.966,24.973,0,0,0,0,0
67713,221,422,8152,-298.329,158.357,7994.457,420.541,562.709,383.654,77.571,72.857,28.140,46.688,1.591,4.437,0,0,0,0,0
67813,-767,1624,8606,-300.914,180.900,8000.329,422.852,588.761,389.774,-25.857,225.428,58.716,23.109,260.526,61.204,0,0,0,0,0
67913,2090,395,7680,-261.700,184.543,7991.100,507.088,589.285,389.601,392.143,36.429,-92.285,842.366,5.243,-1.726,0,0,1,0,0
68013,-242,903,8155,-260.800,197.743,7991.400,507.067,594.856,389.719,9.000,132.000,2.998,-0.217,55.706,1.180,0,0,0,0,0
68113,-322,1159,7679,-259.686,213.157,7984.743,506.845,605.490,391.017,11.143,154.143,-66.572,-2.214,106.340,12.973,0,0,0,0,0
68213,-531,882,7556,-267.129,224.457,7977.757,506.949,610.465,394.233,-74.429,113.000,-69.854,1.041,49.753,32.159,0,0,0,0,0
68313,-755,848,7694,-277.857,237.429,7966.100,509.209,613.920,390.368,-107.286,129.714,-116.572,22.596,34.548,-38.651,0,0,0,0,0
68413,-844,807,6698,-287.586,248.529,7948.757,513.410,617.086,418.350,-97.286,111.000,-173.428,42.007,31.654,279.826,0,0,0,0,0
68513,-311,674,7346,-286.171,269.300,7939.971,513.207,606.496,424.414,14.143,207.714,-87.861,-2.029,-105.900,60.644,0,0,0,0,0
68613,-187,689,7930,-273.771,298.871,7951.729,504.900,574.954,412.406,124.000,295.714,117.573,-83.070,-315.418,-120.083,0,0,0,0,0
68713,-74,765,8578,-260.471,331.329,7961.757,497.673,534.822,418.927,133.000,324.572,100.288,-72.267,-401.322,65.204,0,0,0,0,0
68813,74,615,8743,-246.157,344.929,7972.443,492.652,529.734,429.055,143.143,136.000,106.855,-50.210,-50.878,101.290,0,0,0,0,0
68913,-127,404,7870,-249.857,343.457,7962.571,490.767,529.425,423.311,-37.000,-14.714,-98.716,-18.850,-3.092,-57.441,0,0,0,0,0
69013,-200,411,7785,-246.171,342.086,7957.743,490.158,529.123,423.382,36.857,-13.714,-48.286,-6.086,-3.011,0.702,0,0,0,0,0
69113,-30,263,7628,-237.643,345.943,7950.128,488.649,527.546,424.449,85.286,38.571,-76.143,-15.090,-15.771,10.676,0,0,0,0,0
69213,138,279,8236,-229.671,344.129,7960.429,490.159,527.555,422.509,79.714,-18.143,103.003,15.092,0.087,-19.404,0,0,0,0,0
69313,-784,-473,7727,-237.686,330.086,7958.372,494.551,535.969,423.289,-80.143,-140.428,-20.571,43.920,84.139,7.802,0,0,0,0,0
69413,-450,606,7899,-244.714,330.571,7954.171,494.022,536.203,422.398,-70.286,4.857,-42.002,-5.290,2.343,-8.912,0,0,0,0,0
69513,-324,556,7781,-248.000,332.871,7947.128,493.773,536.820,421.114,-32.857,23.000,-70.430,-2.485,6.164,-12.833,0,0,0,0,0
69613,-105,438,8197,-256.443,334.029,7943.771,486.144,536.958,418.162,-84.429,11.571,-33.569,-76.289,1.380,-29.525,0,0,0,0,0
69713,-19,422,7619,-255.843,337.400,7933.057,486.411,536.759,416.735,6.000,33.714,-107.144,2.667,-1.991,-14.267,0,0,0,0,0
69813,-221,643,8007,-255.986,341.400,7937.457,486.399,537.976,415.866,-1.429,40.000,43.999,-0.117,12.177,-8.694,0,0,0,0,0
69913,-672,601,8529,-264.657,353.800,7950.586,488.324,533.797,419.809,-86.714,124.000,131.289,19.248,-41.789,39.426,0,0,0,0,0
70013,206,628,8821,-259.057,350.957,7972.971,491.432,531.796,423.827,56.000,-28.428,223.853,31.077,-20.016,40.186,0,0,0,0,0
70113,-444,570,7586,-276.243,357.000,7968.171,476.332,531.847,426.273,-171.857,60.428,-47.998,-150.998,0.513,24.457,0,0,0,0,0
70213,-827,456,7752,-283.614,363.514,7971.671,480.785,530.225,423.468,-73.714,65.143,35.000,44.527,-16.223,-28.044,0,0,0,0,0
70313,-114,886,8124,-283.629,375.500,7973.686,480.780,532.413,423.853,-0.143,119.857,20.142,-0.051,21.879,3.842,0,0,0,0,0
70413,-606,1346,8325,-282.243,390.914,7981.357,479.707,544.530,425.280,13.857,154.143,76.714,-10.721,121.174,14.271,0,0,0,0,0
70513,-150,731,8141,-282.729,397.443,7993.357,479.556,545.827,417.696,-4.857,65.286,120.000,-1.514,12.971,-75.833,0,0,0,0,0
70613,-743,782,7775,-291.343,405.143,7982.128,482.323,547.394,412.822,-86.143,77.000,-112.285,27.667,15.665,-48.741,0,0,0,0,0
70713,-610,1131,7983,-288.214,415.743,7984.357,479.527,554.121,412.400,31.286,106.000,22.285,-27.954,67.277,-4.226,0,0,0,0,0
70813,-243,839,7970,-293.743,425.143,7983.400,476.735,555.639,412.354,-55.286,94.000,-9.570,-27.922,15.172,-0.455,0,0,0,0,0
70913,-502,717,7220,-302.243,432.514,7973.286,475.065,556.039,422.155,-85.000,73.714,-101.143,-16.698,4.001,98.013,0,0,0,0,0
71013,-733,762,7742,-316.457,436.800,7963.400,472.850,557.404,419.344,-142.143,42.857,-98.857,-22.148,13.652,-28.114,0,0,0,0,0
71113,-147,389,7512,-320.114,453.586,7949.057,470.530,537.670,417.363,-36.571,167.857,-143.428,-23.204,-197.335,-19.807,0,0,0,0,0
71213,-373,489,8550,-324.371,475.114,7936.814,469.640,507.649,385.792,-42.571,215.286,-122.427,-8.897,-300.217,-315.712,0,0,0,0,0
71313,34,-245,8501,-305.300,474.600,7942.229,456.516,508.359,390.978,190.714,-5.143,54.141,-131.239,7.106,51.856,0,0,0,0,0
71413,-146,452,8005,-308.714,472.557,7948.600,454.414,508.159,388.306,-34.143,-20.429,63.716,-21.028,-2.007,-26.721,0,0,0,0,0
71513,412,214,8828,-307.443,474.971,7967.257,456.300,506.520,398.599,12.714,24.143,186.572,18.864,-16.382,102.933,0,0,0,0,0
71613,892,-148,8356,-291.371,476.900,7977.786,477.938,503.881,398.994,160.714,19.286,105.283,216.378,-26.395,3.954,0,0,0,0,0
71713,-807,50,7086,-297.000,488.014,7970.700,481.643,485.424,410.207,-56.286,111.143,-70.854,37.050,-184.572,112.125,0,0,0,0,0
71813,195,-102,7936,-280.629,495.743,7971.329,478.602,471.461,410.120,163.714,77.286,6.284,-30.411,-139.629,-0.873,0,0,0,0,0
71913,-131,-1141,7984,-269.900,489.200,7972.214,473.390,490.565,410.079,107.286,-65.428,8.857,-52.119,191.040,-0.406,0,0,0,0,0
72013,-1226,-382,8766,-274.700,486.200,7979.957,481.290,495.219,419.762,-48.000,-30.000,77.427,79.008,46.544,96.835,0,0,0,0,0
72113,937,-1546,7905,-256.671,462.943,7972.486,502.249,548.967,416.362,180.286,-232.571,-74.712,209.584,537.479,-34.006,0,1,0,0,0
72213,-559,-1863,8255,-268.686,433.829,7974.657,499.270,613.693,417.432,-120.143,-291.143,21.714,-29.793,647.256,10.700,0,0,0,0,0
72313,-465,-1406,8409,-278.243,408.957,7983.400,496.525,651.320,420.020,-95.572,-248.714,87.427,-27.442,376.270,25.885,0,0,0,0,0
72413,33,-1408,7978,-275.786,383.786,7984.857,497.633,686.077,419.822,24.572,-251.714,14.570,11.073,347.579,-1.982,0,0,0,0,0
72513,-423,-1189,8454,-274.943,357.129,7995.100,497.333,710.001,422.389,8.428,-266.571,102.432,-3.001,239.236,25.667,0,0,0,0,0
72613,-551,-1276,8172,-281.029,327.057,8004.943,498.066,733.565,418.349,-60.857,-300.714,98.428,7.339,235.641,-40.396,0,0,0,0,0
72713,-458,-1475,8286,-279.243,294.100,8012.443,497.204,761.433,418.615,17.857,-329.571,75.000,-8.625,278.683,2.654,0,0,0,0,0
72813,-302,-1675,7523,-271.257,259.357,8005.886,492.260,794.294,422.616,79.857,-347.429,-65.571,-49.435,328.609,40.012,0,0,0,0,0
72913,-339,-1473,7829,-270.943,232.271,8002.200,492.210,820.158,423.017,3.143,-270.857,-36.855,-0.503,258.640,4.013,0,0,0,0,0
73013,-284,-1698,8308,-267.129,204.614,8005.757,491.058,851.541,424.524,38.143,-276.571,35.571,-11.518,313.826,15.070,0,0,0,0,0
73113,-741,-1314,8149,-271.829,188.771,8001.257,493.988,869.149,421.300,-47.000,-158.429,-45.000,29.297,176.079,-32.241,0,0,0,0,0
73213,-441,-1459,8103,-279.757,164.557,7994.000,492.183,890.836,415.064,-79.286,-242.143,-72.573,-18.056,216.875,-62.365,0,0,0,0,0
73313,-316,-1512,8151,-281.571,125.643,8002.014,492.079,903.635,412.594,-18.143,-389.143,80.142,-1.039,127.988,-24.693,0,0,0,0,0
73413,-400,-1552,8011,-275.786,103.400,8002.414,488.256,925.236,412.589,57.857,-222.429,3.999,-38.222,216.005,-0.051,0,0,0,0,0
73513,-446,-1856,8133,-267.943,79.271,7998.729,480.996,953.562,410.247,78.428,-241.286,-36.855,-72.604,283.264,-23.419,0,0,0,0,0
73613,-361,-1655,7964,-259.529,55.900,7997.257,474.093,975.481,410.184,84.143,-233.714,-14.712,-69.028,219.192,-0.629,0,0,0,0,0
73713,-378,-1843,8909,-265.086,30.414,8010.243,473.169,1001.118,424.214,-55.572,-254.857,129.854,-9.247,256.367,140.301,0,0,0,0,0
73813,-229,-1547,7736,-263.129,2.657,8003.057,473.030,1017.400,424.539,19.572,-277.571,-71.855,-1.382,162.825,3.242,0,0,0,0,0
73913,-499,-1488,8251,-267.486,-29.629,8010.300,473.778,1028.275,424.382,-43.571,-322.857,72.427,7.473,108.745,-1.566,0,0,0,0,0
74013,-370,-1737,8182,-267.400,-60.671,8009.843,473.759,1046.390,424.180,0.857,-310.429,-4.570,-0.191,181.154,-2.025,0,0,0,0,0
74113,-517,-1799,8416,-269.129,-85.071,8017.786,474.445,1066.533,426.499,-17.286,-244.000,79.429,6.862,201.427,23.191,0,0,0,0,0
74213,-632,-1598,8034,-272.686,-111.257,8030.229,476.215,1080.760,413.899,-35.571,-261.857,124.429,17.705,142.275,-126.000,0,0,0,0,0
74313,-445,-1675,7946,-278.157,-137.100,8034.729,475.964,1096.106,411.237,-54.714,-258.429,45.000,-2.519,153.456,-26.612,0,0,0,0,0
74413,-280,-1665,7902,-273.514,-168.914,8035.786,474.335,1107.612,410.799,46.429,-318.143,10.571,-16.286,115.056,-4.379,0,0,0,0,0
74513,-283,-1711,8084,-266.800,-219.300,8036.257,470.814,1096.336,410.836,67.143,-503.857,4.717,-35.214,-112.755,0.361,0,0,0,0,0
74613,-256,-1916,8445,-278.714,-271.129,8037.043,459.706,1089.545,411.563,-119.143,-518.286,7.856,-111.075,-67.914,7.278,0,0,0,0,0
74713,-385,-1746,8160,-287.371,-302.100,8037.157,455.904,1100.164,411.596,-86.571,-309.714,1.143,-38.018,106.190,0.330,0,0,0,0,0
74813,-340,-1608,8087,-281.271,-348.271,8029.743,452.288,1086.091,405.918,61.000,-461.714,-74.146,-36.159,-140.731,-56.783,0,0,0,0,0
74913,-584,-1440,7777,-319.471,-374.486,8031.128,352.260,1089.973,404.886,-382.000,-262.143,13.857,-1000.283,38.818,-10.320,0,0,0,0,0
75013,-584,-1263,8091,-324.357,-405.429,8030.214,353.521,1083.996,404.677,-48.857,-309.428,-9.141,12.611,-59.769,-2.085,0,0,0,0,0
75113,-757,-1287,8071,-330.571,-440.371,8035.814,357.229,1072.364,402.485,-62.143,-349.429,56.001,37.077,-116.316,-21.926,0,0,0,0,0
75213,-581,-1249,8250,-331.286,-470.814,8045.729,357.679,1064.612,399.077,-7.143,-304.429,99.141,4.498,-77.521,-34.081,0,0,0,0,0
75313,-525,-1274,8224,-328.000,-501.129,8053.300,354.816,1056.811,397.356,32.857,-303.143,75.713,-28.625,-78.014,-17.210,0,0,0,0,0
75413,-345,-1355,8129,-320.871,-532.014,8073.743,349.348,1049.698,362.374,71.286,-308.857,204.429,-54.680,-71.130,-349.817,0,0,0,0,0
75513,-648,-1186,7844,-325.686,-558.586,8080.857,351.495,1042.348,352.778,-48.143,-265.714,71.143,21.463,-73.491,-95.957,0,0,0,0,0
75613,-248,-1458,8321,-326.557,-589.257,8086.443,351.225,1036.760,353.440,-8.714,-306.714,55.859,-2.694,-55.887,6.619,0,0,0,0,0
75713,-395,-1520,8304,-331.143,-621.900,8082.529,349.991,1029.553,349.470,-45.857,-326.429,-39.141,-12.340,-72.063,-39.706,0,0,0,0,0
75813,-310,-1610,8337,-336.629,-653.686,8076.729,346.591,1025.213,341.744,-54.857,-317.857,-58.003,-34.003,-43.403,-77.260,0,0,0,0,0
75913,-264,-1343,8507,-338.586,-678.643,8085.829,345.787,1020.414,344.587,-19.572,-249.572,91.001,-8.034,-47.989,28.432,0,0,0,0,0
76013,59,-1720,7573,-334.886,-709.086,8082.800,348.625,1019.239,348.131,37.000,-304.428,-30.288,28.372,-11.750,35.441,0,0,0,0,0
76113,-744,-1126,8679,-345.086,-728.929,8097.814,349.997,1013.626,350.846,-102.000,-198.429,150.146,13.728,-56.127,27.148,0,0,0,0,0
76213,-427,-370,7890,-353.157,-738.200,8092.872,345.246,1007.313,351.301,-80.714,-92.714,-49.429,-47.511,-63.132,4.554,0,0,0,0,0
76313,-322,-668,7546,-346.557,-740.986,8090.286,341.341,1006.846,354.635,66.000,-27.857,-25.859,-39.055,-4.675,33.337,0,0,0,0,0
76413,-619,-176,7712,-348.971,-752.157,8087.614,342.659,996.120,356.764,-24.143,-111.714,-26.714,13.182,-107.262,21.288,0,0,0,0,0
76513,-662,-167,7692,-353.800,-762.486,8086.343,344.649,986.201,358.011,-48.286,-103.286,-12.715,19.898,-99.188,12.469,0,0,0,0,0
76613,-594,-88,7773,-360.786,-770.000,8080.286,344.491,979.003,359.670,-69.857,-75.143,-60.571,-1.580,-71.982,16.595,0,0,0,0,0
76713,-263,274,7850,-364.271,-772.114,8083.586,342.242,976.583,356.468,-34.857,-21.143,33.003,-22.489,-24.195,-32.020,0,0,0,0,0
76813,-393,62,7766,-366.729,-780.414,8080.143,341.822,966.942,358.350,-24.572,-83.000,-34.429,-4.202,-96.412,18.819,0,0,0,0,0
76913,-500,50,8022,-364.271,-788.286,8072.900,340.233,957.865,354.306,24.572,-78.714,-72.432,-15.888,-90.773,-40.445,0,0,0,0,0
77013,-344,-181,8089,-372.129,-799.843,8062.443,333.252,945.507,342.683,-78.571,-115.571,-104.570,-69.811,-123.571,-116.224,0,0,0,0,0
77113,-457,56,8047,-372.314,-807.186,8069.029,333.295,936.796,337.859,-1.857,-73.429,65.859,0.436,-87.111,-48.238,0,0,0,0,0
77213,-292,-103,8382,-364.671,-815.171,8078.029,328.886,928.339,337.686,76.429,-79.857,90.000,-44.092,-84.576,-1.739,0,0,0,0,0
77313,-593,26,8277,-371.514,-827.457,8080.214,328.582,911.278,338.470,-68.429,-122.857,21.855,-3.037,-170.609,7.847,0,0,0,0,0
77413,-525,-135,8473,-370.357,-848.614,8082.329,327.897,877.123,340.449,11.571,-211.571,21.143,-6.859,-341.547,19.789,0,0,0,0,0
77513,-489,49,8409,-375.200,-858.357,8086.157,327.109,863.200,342.588,-48.429,-97.429,38.286,-7.879,-139.227,21.384,0,0,0,0,0
77613,-366,-5,8404,-369.814,-869.600,8095.143,324.098,846.730,342.557,53.857,-112.429,89.858,-30.103,-164.703,-0.302,0,0,0,0,0
77713,-410,-34,8230,-366.957,-886.243,8098.671,322.848,818.213,342.656,28.571,-166.429,35.283,-12.508,-285.171,0.988,0,0,0,0,0
77813,-276,-13,8190,-367.429,-898.414,8101.814,322.690,798.560,342.471,-4.714,-121.714,31.431,-1.573,-196.536,-1.857,0,0,0,0,0
77913,-444,33,8172,-366.600,-908.186,8115.414,322.418,782.762,325.673,8.286,-97.714,135.996,-2.722,-157.980,-167.975,0,0,0,0,0
78013,-325,-18,8085,-360.771,-919.329,8120.314,319.416,764.239,322.584,58.286,-111.428,49.004,-30.025,-185.223,-30.895,0,0,0,0,0
78113,-252,77,7939,-362.271,-923.786,8126.414,318.654,757.476,314.970,-15.000,-44.572,60.996,-7.618,-67.635,-76.134,0,0,0,0,0
78213,-231,30,7899,-360.243,-930.343,8117.114,319.031,747.134,311.922,20.286,-65.571,-92.998,3.771,-103.422,-30.482,0,0,0,0,0
78313,-245,95,7782,-364.229,-925.486,8106.843,315.807,752.658,310.948,-39.857,48.571,-102.715,-32.238,55.244,-9.736,0,0,0,0,0
78413,-507,36,7744,-369.386,-931.429,8103.114,315.148,743.343,313.700,-51.571,-59.429,-37.285,-6.589,-93.151,27.515,0,0,0,0,0
78513,-319,26,7801,-379.829,-934.114,8088.443,300.871,739.529,303.298,-104.429,-26.857,-146.714,-142.774,-38.135,-104.018,0,0,0,0,0
78613,-399,27,7376,-398.271,-931.614,8074.443,258.999,742.472,313.085,-184.428,25.000,-140.000,-418.717,29.431,97.868,0,0,0,0,0
78713,-371,260,7653,-392.043,-928.614,8082.543,254.295,746.844,294.171,62.286,30.000,81.001,-47.044,43.717,-189.142,0,0,0,0,0
78813,-638,265,7380,-403.943,-923.371,8074.600,245.897,753.884,305.315,-119.000,52.429,-79.429,-83.978,70.394,111.447,0,0,0,0,0
78913,-383,34,7832,-407.543,-906.586,8072.429,243.710,761.890,306.490,-36.000,167.857,-21.714,-21.873,80.060,11.749,0,0,0,0,0
79013,-501,118,7799,-397.186,-899.443,8058.614,223.254,769.084,296.549,103.571,71.428,-138.145,-204.558,71.945,-99.410,0,0,0,0,0
79113,-234,206,8111,-413.914,-874.414,8061.557,156.568,776.112,296.032,-167.286,250.286,29.429,-666.858,70.275,-5.173,0,0,0,0,0
79213,-420,88,7990,-411.929,-846.543,8057.771,155.594,775.141,295.227,19.857,278.715,-37.856,-9.743,-9.709,-8.047,0,0,0,0,0
79313,-322,-33,8159,-409.886,-826.929,8054.200,155.822,778.102,292.456,20.428,196.143,-35.713,2.284,29.609,-27.713,0,0,0,0,0
79413,-490,22,8197,-417.357,-806.500,8057.329,146.677,781.343,292.795,-74.714,204.286,31.284,-91.446,32.412,3.393,0,0,0,0,0
79513,-400,11,8521,-417.029,-789.357,8058.286,146.690,785.913,294.197,3.286,171.429,9.570,0.127,45.706,14.013,0,0,0,0,0
79613,-409,-72,8428,-415.000,-772.157,8061.943,145.803,788.246,297.164,20.286,172.000,36.572,-8.875,23.330,29.670,0,0,0,0,0
79713,-369,-51,8255,-413.729,-751.814,8061.500,145.810,788.220,296.852,12.714,203.429,-4.429,0.075,-0.261,-3.114,0,0,0,0,0
79813,-466,-24,8418,-416.071,-728.229,8074.286,145.313,784.937,292.627,-23.429,235.857,127.856,-4.973,-32.828,-42.248,0,0,0,0,0
79913,-493,-80,8536,-418.271,-708.329,8084.386,145.295,783.460,296.167,-22.000,199.000,101.001,-0.177,-14.774,35.393,0,0,0,0,0
80013,-366,-74,8556,-419.443,-685.129,8087.929,144.536,777.835,300.275,-11.714,232.000,35.430,-7.587,-56.249,41.086,0,0,0,0,0
80113,-360,-36,8307,-414.000,-666.871,8090.186,139.408,777.859,301.318,54.429,182.572,22.568,-51.287,0.235,10.426,0,0,0,0,0
80213,-267,11,8263,-411.514,-645.871,8092.471,140.451,776.031,302.013,24.857,210.000,22.856,10.438,-18.279,6.946,0,0,0,0,0
80313,-453,0,8016,-413.471,-624.271,8090.543,140.061,772.657,302.064,-19.572,216.000,-19.282,-3.906,-33.733,0.511,0,0,0,0,0
80413,-359,70,7954,-412.886,-601.100,8089.729,140.202,768.800,302.354,5.857,231.714,-8.145,1.408,-38.577,2.900,0,0,0,0,0
80513,-483,81,7726,-413.414,-573.429,8083.914,140.395,757.916,305.364,-5.286,276.714,-58.145,1.935,-108.834,30.103,0,0,0,0,0
80613,-309,120,7674,-412.671,-548.071,8079.771,140.807,750.967,308.909,7.429,253.572,-41.426,4.123,-69.489,35.454,0,0,0,0,0
80713,-499,150,7527,-414.400,-519.600,8060.029,141.113,739.018,299.294,-17.286,284.714,-197.427,3.061,-119.492,-96.149,0,0,0,0,0
80813,-415,144,7682,-417.057,-495.443,8059.257,139.337,732.650,300.197,-26.571,241.571,-7.715,-17.760,-63.682,9.024,0,0,0,0,0
80913,-543,152,7543,-417.686,-472.014,8049.143,139.804,726.733,305.447,-6.286,234.286,-101.143,4.667,-59.166,52.505,0,0,0,0,0
81013,-444,146,7736,-418.743,-445.114,8042.771,139.719,714.153,307.256,-10.572,269.000,-63.716,-0.848,-125.806,18.085,0,0,0,0,0
81113,-377,157,7709,-416.743,-417.171,8032.671,139.300,698.732,306.440,20.000,279.429,-101.001,-4.194,-154.204,-8.156,0,0,0,0,0
81213,-382,212,7662,-413.171,-391.314,8027.357,136.920,687.964,309.581,35.714,258.571,-53.145,-23.802,-107.687,31.404,0,0,0,0,0
81313,-335,148,7760,-411.600,-365.271,8024.700,137.176,673.224,311.062,15.714,260.429,-26.567,2.567,-147.399,14.815,0,0,0,0,0
81413,-476,161,7816,-414.400,-339.186,8023.471,136.460,657.551,311.714,-28.000,260.857,-12.290,-7.163,-156.725,6.514,0,0,0,0,0
81513,-432,112,7888,-416.529,-313.143,8020.671,135.553,638.529,312.037,-21.286,260.428,-27.998,-9.072,-190.220,3.239,0,0,0,0,0
81613,-345,106,7989,-417.800,-284.257,8014.157,134.454,610.486,307.843,-12.714,288.857,-65.142,-10.987,-280.436,-41.949,0,0,0,0,0
81713,-441,137,7996,-418.600,-257.357,8011.814,134.423,586.498,307.347,-8.000,269.000,-23.428,-0.309,-239.876,-4.952,0,0,0,0,0
81813,-443,13,8222,-420.071,-234.200,8013.743,134.118,564.294,308.235,-14.714,231.572,19.282,-3.050,-222.042,8.880,0,0,0,0,0
81913,-449,13,8310,-418.143,-213.443,8021.357,132.710,545.984,308.876,19.286,207.571,76.143,-14.079,-183.096,6.404,0,0,0,0,0
82013,-402,-90,8387,-415.543,-196.686,8025.586,131.210,531.318,311.812,26.000,167.571,42.290,-15.005,-146.661,29.367,0,0,0,0,0
82113,-342,-45,8431,-409.614,-178.943,8030.729,124.870,515.102,315.466,59.286,177.429,51.426,-63.398,-162.160,36.540,0,0,0,0,0
82213,-338,-70,8396,-406.143,-162.100,8032.814,123.427,498.857,317.386,34.714,168.428,20.859,-14.434,-162.449,19.196,0,0,0,0,0
82313,-391,-13,8331,-404.229,-144.086,8034.343,122.605,480.822,318.559,19.143,180.143,15.283,-8.219,-180.351,11.726,0,0,0,0,0
82413,-405,-91,8446,-405.086,-126.029,8038.872,122.397,458.210,322.106,-8.571,180.571,45.288,-2.075,-226.118,35.469,0,0,0,0,0
82513,-494,2,8265,-402.886,-109.057,8044.886,119.358,440.287,322.341,22.000,169.714,60.142,-30.397,-179.237,2.356,0,0,0,0,0
82613,-251,-30,8298,-402.929,-88.657,8044.557,119.302,409.305,322.071,-0.428,204.000,-3.286,-0.551,-309.817,-2.700,0,0,0,0,0
82713,-494,57,8055,-404.343,-66.129,8041.000,119.786,371.562,320.558,-14.143,225.286,-35.571,4.834,-377.429,-15.136,0,0,0,0,0
82813,-423,-14,7964,-405.957,-43.329,8035.671,119.264,321.756,318.688,-16.143,228.000,-53.286,-5.220,-498.064,-18.700,0,0,0,0,0
82913,-490,29,7871,-409.186,-23.729,8026.586,118.433,281.223,314.155,-32.285,196.000,-90.854,-8.305,-405.322,-45.331,0,0,0,0,0
83013,-436,95,7774,-416.257,2.200,8029.457,104.189,193.677,310.897,-70.714,259.286,28.711,-142.444,-875.462,-32.572,0,0,0,0,0
83113,-407,166,7699,-411.443,20.657,8015.457,96.431,139.177,303.305,48.143,184.571,-140.000,-77.583,-545.006,-75.923,0,0,0,0,0
83213,-378,207,7744,-410.743,28.900,8013.372,96.493,132.733,304.660,7.000,82.429,-20.854,0.624,-64.436,13.546,0,0,0,0,0
83313,-440,193,7707,-412.429,41.200,8015.671,95.957,104.467,301.716,-16.857,123.000,22.998,-5.358,-282.662,-29.436,0,0,0,0,0
83413,-479,176,7678,-410.429,46.229,8015.186,93.046,102.341,302.231,20.000,50.286,-4.858,-29.115,-21.258,5.154,0,0,0,0,0
83513,-383,183,7777,-406.443,51.229,8016.400,88.024,100.331,301.099,39.857,50.000,12.144,-50.216,-20.096,-11.323,0,0,0,0,0
83613,-469,181,7686,-404.657,55.071,8015.157,85.431,100.076,302.278,17.857,38.429,-12.427,-25.933,-2.550,11.794,0,0,0,0,0
83713,-335,144,7869,-405.686,53.214,8015.429,84.143,97.160,302.138,-10.286,-18.571,2.715,-12.880,-29.162,-1.400,0,0,0,0,0
83813,-562,174,7602,-408.100,54.814,8013.086,86.145,98.208,304.689,-24.143,16.000,-23.428,20.021,10.480,25.501,0,0,0,0,0
83913,-345,107,7974,-405.886,55.629,8012.400,85.745,98.401,304.722,22.143,8.143,-6.860,-3.995,1.928,0.332,0,0,0,0,0
84013,-488,146,7866,-407.943,60.300,8009.214,85.963,94.751,305.070,-20.572,46.714,-31.855,2.177,-36.502,3.480,0,0,0,0,0
84113,-229,101,8082,-404.686,60.943,8009.714,88.330,94.872,305.160,32.572,6.429,5.000,23.664,1.212,0.902,0,0,0,0,0
84213,-449,59,8156,-406.929,63.257,8006.486,87.428,92.798,302.387,-22.429,23.143,-32.285,-9.011,-20.742,-27.729,0,0,0,0,0
84313,-334,-12,8311,-403.229,62.714,8006.971,84.920,93.125,302.848,37.000,-5.429,4.854,-25.084,3.270,4.611,0,0,0,0,0
84413,-493,-63,8333,-402.771,63.743,8004.971,84.347,91.315,300.215,4.572,10.286,-20.000,-5.725,-18.094,-26.334,0,0,0,0,0
84513,-307,-27,8386,-400.171,62.657,8004.643,84.454,91.934,299.785,26.000,-10.857,-3.281,1.069,6.186,-4.301,0,0,0,0,0
84613,-421,-9,8249,-400.957,62.600,8002.429,84.389,91.977,297.390,-7.857,-0.571,-22.144,-0.657,0.433,-23.951,0,0,0,0,0
84713,-382,-15,8241,-400.557,62.871,8002.586,84.411,91.719,297.513,4.000,2.714,1.572,0.225,-2.578,1.231,0,0,0,0,0
84813,-454,1,8059,-403.100,63.071,8000.714,83.294,91.569,296.739,-25.429,2.000,-18.716,-11.168,-1.505,-7.737,0,0,0,0,0
84913,-449,-31,8048,-403.171,62.157,7998.943,83.332,92.182,296.081,-0.714,-9.143,-17.715,0.372,6.131,-6.584,0,0,0,0,0
85013,-321,-45,8242,-403.114,61.771,8001.186,83.386,92.572,297.316,0.571,-3.857,22.427,0.550,3.903,12.355,0,0,0,0,0
85113,-370,-6,8077,-404.800,60.586,8003.157,81.486,92.901,297.355,-16.857,-11.857,19.717,-19.009,3.283,0.386,0,0,0,0,0
85213,-341,9,8044,-406.371,60.286,8005.229,79.146,93.033,297.127,-15.714,-3.000,20.713,-23.398,1.321,-2.278,0,0,0,0,0
85313,-513,55,7832,-410.200,59.714,8005.943,77.716,92.941,296.649,-38.286,-5.714,7.144,-14.296,-0.922,-4.777,0,0,0,0,0
85413,-331,96,7919,-407.686,60.571,8008.443,77.390,92.995,295.165,25.143,8.571,25.000,-3.261,0.540,-14.844,0,0,0,0,0
85513,-494,149,7694,-410.186,62.329,8006.914,77.311,93.485,296.509,-25.000,17.571,-15.288,-0.787,4.909,13.443,0,0,0,0,0
85613,-268,150,7780,-408.314,64.086,8012.686,79.124,93.960,287.982,18.714,17.571,57.715,18.124,4.742,-85.275,0,0,0,0,0
85713,-489,199,7557,-410.000,63.214,8011.314,79.567,92.409,289.913,-16.857,-8.714,-13.711,4.428,-15.510,19.318,0,0,0,0,0
85813,-414,173,7691,-406.800,61.900,8015.757,74.687,90.156,282.493,32.000,-13.143,44.429,-48.792,-22.525,-74.208,0,0,0,0,0
85913,-520,165,7721,-408.757,63.771,8014.171,75.825,90.914,283.828,-19.572,18.714,-15.859,11.370,7.579,13.354,0,0,0,0,0
86013,-363,185,7850,-406.786,64.729,8014.900,75.192,91.828,283.340,19.714,9.571,7.285,-6.326,9.140,-4.882,0,0,0,0,0
86113,-410,175,7796,-409.300,64.286,8010.400,72.258,91.218,284.278,-25.143,-4.429,-45.000,-29.344,-6.096,9.379,0,0,0,0,0
86213,-404,137,7777,-409.071,64.986,8007.357,72.249,91.585,285.616,2.285,7.000,-30.430,-0.089,3.666,13.388,0,0,0,0,0
86313,-486,140,7812,-411.414,67.457,8002.400,72.046,91.241,285.953,-23.428,24.714,-49.570,-2.027,-3.439,3.361,0,0,0,0,0
86413,-412,124,8030,-410.300,68.914,8000.014,71.422,91.318,285.014,11.143,14.571,-23.857,-6.236,0.769,-9.384,0,0,0,0,0
86513,-343,97,8074,-409.486,70.143,7993.628,71.859,91.109,278.196,8.143,12.286,-63.857,4.364,-2.092,-68.182,0,0,0,0,0
86613,-365,70,8095,-408.857,72.171,7988.872,72.052,89.488,273.536,6.286,20.286,-47.568,1.937,-16.210,-46.603,0,0,0,0,0
86713,-352,6,8196,-408.614,72.986,7988.029,72.215,88.618,272.804,2.429,8.143,-8.428,1.624,-8.694,-7.314,0,0,0,0,0
86813,-484,-52,8306,-408.871,72.586,7986.429,72.450,89.117,270.597,-2.571,-4.000,-16.001,2.355,4.987,-22.070,0,0,0,0,0
86913,-393,-57,8437,-407.443,72.914,7985.014,71.760,88.595,267.967,14.286,3.286,-14.146,-6.903,-5.223,-26.301,0,0,0,0,0
87013,-382,-62,8449,-407.671,73.086,7983.486,71.653,88.321,264.994,-2.285,1.714,-15.283,-1.070,-2.732,-29.727,0,0,0,0,0
87113,-305,-17,8454,-406.886,73.357,7985.586,72.468,88.014,268.114,7.857,2.714,21.001,8.153,-3.070,31.194,0,0,0,0,0
87213,-341,-39,8250,-407.943,72.643,7985.400,70.944,88.718,267.926,-10.572,-7.143,-1.860,-15.246,7.032,-1.877,0,0,0,0,0
87313,-452,-4,8229,-407.929,72.586,7988.443,70.935,88.766,269.462,0.143,-0.571,30.430,-0.090,0.480,15.353,0,0,0,0,0
87413,-425,-36,8067,-408.871,71.071,7990.057,70.717,89.696,269.589,-9.429,-15.143,16.143,-2.183,9.305,1.273,0,0,0,0,0
87513,-429,23,8205,-408.100,70.243,7996.900,70.196,89.868,268.878,7.714,-8.286,68.428,-5.202,1.722,-7.111,0,0,0,0,0
87613,-366,5,8016,-408.914,68.600,8001.786,69.368,89.995,266.058,-8.143,-16.429,48.857,-8.286,1.264,-28.193,0,0,0,0,0
87713,-480,61,7904,-408.643,67.329,8007.171,69.051,89.463,260.143,2.714,-12.714,53.857,-3.166,-5.319,-59.155,0,0,0,0,0
87813,-412,62,7846,-408.600,66.157,8009.514,69.048,88.987,257.933,0.428,-11.714,23.428,-0.030,-4.760,-22.099,0,0,0,0,0
87913,-468,104,7774,-407.529,65.471,8012.814,67.519,88.506,253.381,10.714,-6.857,33.003,-15.289,-4.805,-45.522,0,0,0,0,0
88013,-279,107,7787,-405.171,64.914,8013.543,69.067,88.120,252.656,23.571,-5.571,7.285,15.480,-3.868,-7.247,0,0,0,0,0
88113,-423,185,7645,-405.829,65.314,8012.628,69.015,88.599,253.869,-6.572,4.000,-9.146,-0.523,4.793,12.133,0,0,0,0,0
88213,-403,166,7690,-406.129,64.657,8013.029,68.956,87.674,253.338,-3.000,-6.571,4.004,-0.586,-9.247,-5.313,0,0,0,0,0
88313,-471,170,7733,-408.071,64.971,8012.643,68.841,88.011,253.743,-19.429,3.143,-3.857,-1.156,3.370,4.052,0,0,0,0,0
88413,-466,169,7757,-407.929,65.086,8011.800,68.710,88.141,254.492,1.429,1.143,-8.433,-1.309,1.297,7.487,0,0,0,0,0
88513,-332,122,7876,-406.500,65.229,8011.628,69.232,88.225,254.579,14.286,1.429,-1.714,5.223,0.840,0.874,0,0,0,0,0
88613,-457,189,7794,-408.100,66.414,8008.843,69.086,89.316,255.875,-16.000,11.857,-27.856,-1.457,10.910,12.959,0,0,0,0,0
88713,-424,172,7754,-407.857,66.914,8005.386,69.000,89.806,257.654,2.429,5.000,-34.570,-0.863,4.904,17.788,0,0,0,0,0
88813,-564,149,7685,-409.586,68.857,7997.714,71.335,90.090,259.081,-17.286,19.429,-76.714,23.349,2.833,14.267,0,0,0,0,0
88913,-316,61,7994,-407.686,69.543,7993.200,72.028,89.844,256.339,19.000,6.857,-45.142,6.928,-2.454,-27.421,0,0,0,0,0
89013,-421,113,8084,-407.957,72.443,7988.872,72.042,87.903,252.177,-2.715,29.000,-43.286,0.139,-19.413,-41.618,0,0,0,0,0
89113,-268,37,8243,-406.900,73.614,7986.186,73.529,86.870,248.427,10.572,11.714,-26.860,14.877,-10.326,-37.498,0,0,0,0,0
89213,-520,2,8273,-409.500,74.643,7984.429,74.261,85.581,245.945,-26.000,10.286,-17.568,7.318,-12.899,-24.823,0,0,0,0,0
89313,-386,-88,8477,-409.429,73.571,7986.514,74.281,87.127,249.469,0.714,-10.714,20.854,0.202,15.461,35.241,0,0,0,0,0
89413,-494,-60,8298,-410.700,74.014,7984.400,74.953,86.364,246.171,-12.715,4.429,-21.143,6.720,-7.622,-32.978,0,0,0,0,0
89513,-279,-83,8526,-407.629,72.800,7988.128,75.876,87.951,252.293,30.714,-12.143,37.285,9.231,15.870,61.222,0,0,0,0,0
89613,-404,-18,8199,-409.814,72.971,7986.714,73.499,87.762,250.826,-21.857,1.714,-14.141,-23.769,-1.890,-14.678,0,0,0,0,0
89713,-366,-12,8181,-407.986,71.986,7988.514,72.973,88.322,251.759,18.286,-9.857,17.998,-5.268,5.596,9.340,0,0,0,0,0
89813,-489,-36,8317,-408.929,71.671,7993.557,73.584,88.666,254.736,-9.428,-3.143,50.430,6.117,3.439,29.762,0,0,0,0,0
89913,-367,-30,8290,-407.171,70.829,7999.543,73.094,89.345,256.701,17.571,-8.428,59.858,-4.900,6.795,19.650,0,0,0,0,0
90013,-277,8,8243,-404.900,69.586,8006.243,74.618,89.605,256.847,22.714,-12.429,66.997,15.235,2.599,1.463,0,0,0,0,0
90113,-447,47,7994,-405.471,67.886,8010.457,74.785,88.886,254.178,-5.714,-17.000,42.144,1.669,-7.194,-26.695,0,0,0,0,0
90213,-383,23,7933,-405.543,65.257,8013.157,74.761,87.442,252.330,-0.714,-26.286,27.002,-0.239,-14.439,-18.477,0,0,0,0,0
90313,-559,92,7762,-407.243,63.814,8013.943,76.849,86.146,251.459,-17.000,-14.429,7.856,20.880,-12.961,-8.704,0,0,0,0,0
90413,-361,110,7790,-405.557,62.871,8015.543,76.550,85.269,249.667,16.857,-9.429,16.001,-2.989,-8.763,-17.927,0,0,0,0,0
90513,-444,179,7658,-406.429,62.814,8013.843,76.635,85.190,251.682,-8.714,-0.571,-17.002,0.854,-0.792,20.155,0,0,0,0,0
90613,-406,223,7687,-405.529,63.414,8013.857,76.264,86.163,251.664,9.000,6.000,0.142,-3.711,9.726,-0.186,0,0,0,0,0
90713,-547,212,7514,-408.557,64.386,8008.786,77.601,87.440,258.028,-30.286,9.714,-50.713,13.368,12.769,63.644,0,0,0,0,0
90813,-410,190,7775,-406.386,64.614,8011.257,75.372,87.746,254.930,21.714,2.286,24.717,-22.294,3.066,-30.982,0,0,0,0,0
90913,-513,161,7645,-408.786,65.386,8006.557,76.050,88.351,258.580,-24.000,7.714,-47.002,6.788,6.045,36.502,0,0,0,0,0
91013,-287,125,7825,-405.914,65.086,8005.971,76.796,88.112,258.944,28.714,-3.000,-5.859,7.458,-2.389,3.639,0,0,0,0,0
91113,-449,216,7612,-409.057,66.729,7999.257,73.940,89.822,262.948,-31.429,16.429,-67.139,-28.559,17.098,40.041,0,0,0,0,0
91213,-481,162,7826,-409.514,68.200,7994.543,74.284,90.524,263.054,-4.572,14.714,-47.144,3.437,7.022,1.058,0,0,0,0,0
91313,-477,115,7910,-411.557,70.014,7988.814,74.145,90.171,260.453,-20.428,18.143,-57.285,-1.386,-3.536,-26.005,0,0,0,0,0
91413,-444,125,8016,-410.857,72.700,7984.286,73.602,88.960,257.165,7.000,26.857,-45.288,-5.429,-12.101,-32.887,0,0,0,0,0
91513,-305,51,8214,-410.829,73.814,7981.829,73.643,88.190,254.118,0.286,11.143,-24.570,0.407,-7.706,-30.464,0,0,0,0,0
91613,-408,48,8178,-410.643,74.629,7980.814,73.634,87.683,253.190,1.857,8.143,-10.142,-0.095,-5.067,-9.284,0,0,0,0,0
91713,-432,-24,8356,-411.357,74.500,7982.457,73.595,87.821,255.238,-7.143,-1.286,16.426,-0.388,1.378,20.477,0,0,0,0,0
91813,-405,-75,8438,-410.657,73.414,7987.872,73.419,89.182,260.764,7.000,-10.857,54.146,-1.761,13.612,55.263,0,0,0,0,0
91913,-357,-35,8454,-409.343,73.357,7993.671,73.544,89.250,266.489,13.143,-0.571,57.998,1.252,0.682,57.252,0,0,0,0,0
92013,-307,-44,8353,-409.143,73.371,7995.257,73.802,89.231,268.286,2.000,0.143,15.859,2.585,-0.189,17.971,0,0,0,0,0
92113,-288,0,8262,-407.971,73.457,7997.900,75.055,89.158,269.984,11.714,0.857,26.426,12.522,-0.734,16.981,0,0,0,0,0
92213,-439,-27,8137,-409.371,72.943,7999.229,74.706,89.631,270.436,-14.000,-5.143,13.286,-3.491,4.729,4.520,0,0,0,0,0
92313,-349,-12,8165,-407.029,71.986,8003.986,73.987,90.173,270.382,23.429,-9.571,47.573,-7.185,5.426,-0.546,0,0,0,0,0
92413,-365,-31,8213,-407.514,70.171,8008.186,73.597,90.946,271.311,-4.857,-18.143,41.997,-3.901,7.729,9.290,0,0,0,0,0
92513,-390,26,8102,-406.029,68.414,8014.014,72.882,90.594,268.870,14.857,-17.571,58.286,-7.146,-3.525,-24.407,0,0,0,0,0
92613,-390,24,7953,-407.771,66.614,8016.486,70.995,90.206,267.499,-17.429,-18.000,24.717,-18.873,-3.880,-13.708,0,0,0,0,0
92713,-481,98,7823,-407.657,65.171,8020.286,70.870,88.875,262.793,1.143,-14.429,37.998,-1.245,-13.311,-47.063,0,0,0,0,0
92813,-353,71,7857,-406.786,63.714,8022.657,71.162,87.926,260.550,8.714,-14.571,23.716,2.911,-9.487,-22.427,0,0,0,0,0
92913,-398,175,7706,-405.043,63.857,8022.443,69.849,88.098,260.804,17.429,1.429,-2.144,-13.122,1.724,2.540,0,0,0,0,0
93013,-288,180,7763,-403.971,63.786,8021.200,71.051,88.002,261.828,10.714,-0.714,-12.427,12.016,-0.963,10.241,0,0,0,0,0
93113,-376,193,7736,-403.486,64.043,8020.343,71.124,88.352,262.661,4.857,2.571,-8.574,0.733,3.502,8.327,0,0,0,0,0
93213,-472,175,7722,-404.457,64.586,8019.557,71.587,88.914,263.469,-9.714,5.429,-7.856,4.633,5.615,8.077,0,0,0,0,0
93313,-486,175,7824,-404.457,65.086,8019.729,71.587,89.433,263.338,0.000,5.000,1.714,0.000,5.196,-1.312,0,0,0,0,0
93413,-484,195,7829,-405.486,66.100,8016.857,72.203,90.492,264.304,-10.286,10.143,-28.716,6.156,10.588,9.664,0,0,0,0,0
93513,-405,142,7910,-406.371,66.743,8014.514,71.810,90.868,264.514,-8.857,6.429,-23.428,-3.927,3.763,2.098,0,0,0,0,0
93613,-421,152,7965,-407.171,67.914,8012.657,71.657,91.430,264.399,-8.000,11.714,-18.569,-1.536,5.613,-1.153,0,0,0,0,0
93713,-440,34,8032,-408.429,68.314,8010.314,71.449,91.219,263.489,-12.571,4.000,-23.428,-2.073,-2.108,-9.099,0,0,0,0,0
93813,-456,19,8272,-408.029,69.329,8009.829,71.103,90.265,262.974,4.000,10.143,-4.858,-3.467,-9.537,-5.147,0,0,0,0,0
93913,-323,-7,8107,-407.029,70.043,8005.114,71.796,89.457,258.188,10.000,7.143,-47.144,6.932,-8.083,-47.857,0,0,0,0,0
94013,-402,90,8064,-407.314,72.214,7999.614,71.736,88.059,252.717,-2.857,21.714,-55.000,-0.604,-13.976,-54.717,0,0,0,0,0
94113,-257,5,8258,-406.629,72.529,7996.814,72.930,87.779,248.721,6.857,3.143,-27.998,11.942,-2.801,-39.957,0,0,0,0,0
94213,-513,-3,8235,-409.086,73.043,7996.600,73.572,87.228,248.509,-24.572,5.143,-2.144,6.421,-5.512,-2.119,0,0,0,0,0
94313,-354,-87,8465,-407.686,71.857,7999.971,73.674,88.817,253.196,14.000,-11.857,33.711,1.024,15.889,46.867,0,0,0,0,0
94413,-485,-22,8312,-408.543,72.057,8003.471,74.218,88.589,255.778,-8.571,2.000,35.000,5.435,-2.276,25.826,0,0,0,0,0
94513,-323,-71,8418,-407.029,70.714,8006.514,74.863,90.024,259.399,15.143,-13.429,30.430,6.457,14.343,36.207,0,0,0,0,0
94613,-504,13,8144,-409.000,70.829,8008.343,75.571,89.945,259.910,-19.714,1.143,18.286,7.073,-0.784,5.110,0,0,0,0,0
94713,-434,-18,8128,-408.343,69.700,8011.543,75.149,90.555,259.985,6.571,-11.286,32.002,-4.214,6.098,0.746,0,0,0,0,0
94813,-430,28,8014,-408.600,69.214,8013.943,75.192,90.686,259.220,-2.571,-4.857,23.999,0.429,1.311,-7.650,0,0,0,0,0
94913,-371,84,7936,-407.214,68.929,8016.257,74.978,90.607,257.786,13.857,-2.857,23.145,-2.139,-0.786,-14.334,0,0,0,0,0
95013,-319,131,7790,-407.786,69.271,8016.300,74.147,90.796,257.749,-5.714,3.429,0.425,-8.315,1.886,-0.378,0,0,0,0,0
95113,-368,157,7741,-407.000,68.871,8017.671,74.273,90.346,256.019,7.857,-4.000,13.716,1.259,-4.502,-17.296,0,0,0,0,0
95213,-410,176,7689,-407.100,69.014,8017.657,74.272,90.507,256.037,-1.000,1.429,-0.142,-0.007,1.612,0.183,0,0,0,0,0
95313,-507,147,7694,-407.614,68.686,8017.100,74.835,90.181,256.698,-5.143,-3.286,-5.571,5.632,-3.260,6.604,0,0,0,0,0
95413,-385,182,7737,-406.457,68.871,8016.814,74.549,90.401,256.998,11.571,1.857,-2.856,-2.861,2.195,3.003,0,0,0,0,0
95513,-511,219,7612,-409.014,70.257,8013.043,75.020,91.935,260.943,-25.571,13.857,-37.715,4.706,15.342,39.455,0,0,0,0,0
95613,-351,159,7727,-407.500,69.829,8012.086,75.106,91.449,261.866,15.143,-4.286,-9.570,0.859,-4.859,9.229,0,0,0,0,0
95713,-641,203,7441,-410.600,70.271,8007.614,80.039,92.016,268.815,-31.000,4.429,-44.717,49.334,5.670,69.488,0,0,0,0,0
95813,-384,136,7891,-408.029,70.086,8010.557,77.933,91.870,266.384,25.714,-1.857,29.429,-21.059,-1.461,-24.313,0,0,0,0,0
95913,-448,171,7810,-409.914,71.657,8007.929,77.278,92.638,267.440,-18.857,15.714,-26.284,-6.554,7.687,10.562,0,0,0,0,0
96013,-293,147,8011,-408.086,72.143,8006.886,78.499,92.943,267.284,18.286,4.857,-10.430,12.208,3.041,-1.564,0,0,0,0,0
96113,-423,86,8041,-410.300,72.843,8004.000,76.681,92.860,265.805,-22.143,7.000,-28.857,-18.177,-0.828,-14.785,0,0,0,0,0
96213,-401,27,8215,-408.600,73.200,8003.171,75.541,92.634,265.055,17.000,3.571,-8.286,-11.402,-2.254,-7.505,0,0,0,0,0
96313,-464,-35,8264,-409.714,73.957,8000.128,75.774,91.524,260.786,-11.143,7.571,-30.430,2.333,-11.107,-42.688,0,0,0,0,0
96413,-427,-15,8368,-408.757,74.600,8001.128,75.124,90.735,262.057,9.572,6.429,10.000,-6.503,-7.885,12.714,0,0,0,0,0
96513,-567,4,8344,-412.871,75.843,7998.529,75.788,89.150,257.704,-41.143,12.429,-25.996,6.644,-15.853,-43.537,0,0,0,0,0
96613,-387,87,8329,-412.629,77.343,8000.386,75.843,88.439,259.603,2.429,15.000,18.569,0.553,-7.111,18.994,0,0,0,0,0
96713,-429,52,8213,-413.529,78.257,8000.843,75.658,87.839,259.949,-9.000,9.143,4.570,-1.851,-5.996,3.456,0,0,0,0,0
96813,-480,68,8130,-413.400,79.743,7998.171,75.537,86.767,257.636,1.286,14.857,-26.714,-1.208,-10.721,-23.122,0,0,0,0,0
96913,-342,65,8183,-413.043,81.100,7996.643,75.815,85.777,256.214,3.571,13.571,-15.283,2.771,-9.898,-14.225,0,0,0,0,0
97013,-487,108,7903,-416.043,82.529,7991.786,74.516,85.380,254.716,-30.000,14.286,-48.574,-12.989,-3.975,-14.979,0,0,0,0,0
97113,-132,51,7860,-411.543,82.586,7989.872,81.678,85.357,255.195,45.000,0.571,-19.141,71.619,-0.225,4.792,0,0,0,0,0
97213,-569,142,7631,-414.200,84.286,7985.557,83.706,85.339,258.650,-26.572,17.000,-43.145,20.285,-0.186,34.544,0,0,0,0,0
97313,-137,43,7608,-408.171,83.586,7983.357,88.139,85.473,261.184,60.286,-7.000,-22.002,44.333,1.347,25.346,0,0,0,0,0
97413,-688,128,7672,-412.843,83.843,7981.671,93.987,85.579,262.803,-46.714,2.571,-16.855,58.477,1.061,16.183,0,0,0,0,0
97513,-175,76,7555,-409.000,82.371,7980.200,98.046,84.813,264.891,38.429,-14.714,-14.712,40.592,-7.667,20.882,0,0,0,0,0
97613,-616,148,7525,-412.000,81.300,7977.886,101.075,83.493,268.130,-30.000,-10.714,-23.145,30.283,-13.198,32.394,0,0,0,0,0
97713,-222,77,7600,-407.357,79.371,7979.114,102.225,81.997,266.192,46.429,-19.286,12.285,11.500,-14.955,-19.383,0,0,0,0,0
97813,-540,127,7656,-409.214,78.471,7977.414,103.429,81.119,267.865,-18.571,-9.000,-17.002,12.049,-8.782,16.728,0,0,0,0,0
97913,-239,53,7749,-405.300,76.929,7978.900,104.606,80.560,266.301,39.143,-15.429,14.858,11.762,-5.592,-15.640,0,0,0,0,0
98013,-343,78,7868,-406.100,76.257,7979.514,103.910,80.352,265.994,-8.000,-6.714,6.143,-6.960,-2.079,-3.063,0,0,0,0,0
98113,-280,48,8019,-403.686,73.857,7985.329,104.844,78.633,262.320,24.143,-24.000,58.145,9.343,-17.192,-36.741,0,0,0,0,0
98213,-302,55,8044,-401.129,72.329,7988.443,105.110,77.942,261.704,25.571,-15.286,31.143,2.657,-6.913,-6.167,0,0,0,0,0
98313,-393,43,8149,-399.929,71.300,7991.857,104.715,77.847,262.216,12.000,-10.286,34.141,-3.943,-0.949,5.128,0,0,0,0,0
98413,-397,59,8246,-399.257,70.357,7995.143,104.581,77.590,263.934,6.714,-9.429,32.861,-1.341,-2.568,17.173,0,0,0,0,0
98513,-484,69,8266,-401.814,70.614,7995.886,104.434,77.555,264.621,-25.572,2.571,7.427,-1.477,-0.348,6.872,0,0,0,0,0
98613,-339,44,8386,-400.829,70.557,7998.857,104.696,77.573,267.798,9.857,-0.571,29.712,2.623,0.181,31.770,0,0,0,0,0
98713,-543,72,8231,-402.414,71.929,7997.071,105.989,76.734,265.820,-15.857,13.714,-17.856,12.927,-8.398,-19.780,0,0,0,0,0
98813,-287,-4,8378,-400.729,72.943,7996.214,106.869,75.239,264.490,16.857,10.143,-8.569,8.802,-14.942,-13.297,0,0,0,0,0
98913,-417,61,8376,-401.586,74.314,7995.100,106.755,74.126,262.718,-8.571,13.714,-11.143,-1.136,-11.133,-17.726,0,0,0,0,0
99013,-381,18,8419,-402.643,75.200,7996.043,106.178,73.070,264.115,-10.571,8.857,9.429,-5.770,-10.561,13.975,0,0,0,0,0
99113,-306,107,8334,-402.900,76.729,7997.071,105.922,72.598,265.286,-2.571,15.286,10.283,-2.565,-4.715,11.714,0,0,0,0,0
99213,-416,60,8232,-402.571,77.971,7998.429,105.845,71.549,266.240,3.286,12.429,13.574,-0.769,-10.493,9.536,0,0,0,0,0
99313,-330,58,8191,-402.300,78.971,7998.800,106.006,70.770,266.490,2.715,10.000,3.711,1.613,-7.795,2.502,0,0,0,0,0
99413,-449,92,8059,-403.500,80.729,7996.600,106.053,69.534,265.346,-12.000,17.571,-21.997,0.464,-12.361,-11.442,0,0,0,0,0
99513,-363,92,7862,-403.114,81.671,7993.171,106.150,69.232,265.513,3.857,9.429,-34.287,0.975,-3.017,1.664,0,0,0,0,0
99613,-373,135,7716,-402.871,83.257,7989.786,106.199,69.164,267.507,2.429,15.857,-33.857,0.492,-0.679,19.942,0,0,0,0,0
99713,-413,125,7731,-401.900,83.643,7988.471,105.790,69.320,268.547,9.714,3.857,-13.145,-4.089,1.563,10.402,0,0,0,0,0
99813,-479,107,7659,-403.700,84.157,7985.643,106.015,69.358,270.949,-18.000,5.143,-28.281,2.244,0.378,24.019,0,0,0,0,0
99913,-319,112,7797,-402.571,83.257,7986.943,106.489,68.578,269.820,11.286,-9.000,12.998,4.741,-7.803,-11.289,0,0,0,0,0
100013,-428,94,7717,-404.571,82.029,7986.286,105.629,67.597,270.420,-20.000,-12.286,-6.572,-8.594,-9.808,6.000,0,0,0,0,0
100113,-329,101,7832,-403.900,80.714,7987.657,105.958,66.309,269.389,6.714,-13.143,13.716,3.284,-12.883,-10.314,0,0,0,0,0
100213,-301,109,7788,-401.457,79.771,7988.600,106.330,65.425,268.571,24.428,-9.429,9.429,3.723,-8.840,-8.172,0,0,0,0,0
100313,-471,99,7709,-401.243,78.686,7986.957,106.174,64.459,269.922,2.143,-10.857,-16.431,-1.556,-9.658,13.502,0,0,0,0,0
100413,-217,58,7888,-397.429,76.729,7987.800,107.915,62.960,269.519,38.143,-19.571,8.428,17.401,-14.989,-4.027,0,0,0,0,0
100513,-582,99,7760,-399.957,76.114,7985.657,110.114,62.528,270.723,-25.286,-6.143,-21.426,21.990,-4.315,12.036,0,0,0,0,0
100613,-181,44,7953,-396.529,74.571,7985.486,113.101,61.967,270.739,34.286,-15.429,-1.714,29.873,-5.616,0.168,0,0,0,0,0
100713,-510,86,7986,-397.529,75.314,7984.829,113.788,61.787,270.681,-10.000,7.429,-6.572,6.873,-1.794,-0.579,0,0,0,0,0
100813,-342,27,8211,-395.900,75.429,7983.957,113.756,61.690,269.853,16.286,1.143,-8.716,-0.327,-0.970,-8.290,0,0,0,0,0
100913,-519,28,8268,-398.700,75.929,7986.257,114.337,61.160,271.572,-28.000,5.000,23.003,5.819,-5.305,17.195,0,0,0,0,0
101013,-316,30,8402,-397.471,75.071,7991.086,114.757,61.377,275.882,12.286,-8.571,48.286,4.192,2.168,43.099,0,0,0,0,0
101113,-509,27,8319,-401.071,75.386,7991.957,114.245,61.073,276.818,-36.000,3.143,8.711,-5.116,-3.040,9.365,0,0,0,0,0
101213,-247,11,8349,-397.271,75.586,7993.586,114.881,60.838,278.573,38.000,2.000,16.289,6.359,-2.345,17.549,0,0,0,0,0
101313,-539,75,8166,-399.914,77.900,7989.314,115.978,57.605,273.559,-26.429,23.143,-42.715,10.969,-32.335,-50.139,0,0,0,0,0
101413,-358,3,8377,-398.100,78.257,7990.243,115.625,57.059,274.761,18.143,3.571,9.282,-3.524,-5.456,12.014,0,0,0,0,0
101513,-405,65,8197,-399.271,80.200,7987.086,115.273,54.187,271.073,-11.714,19.429,-31.567,-3.519,-28.722,-36.883,0,0,0,0,0
101613,-385,57,8177,-397.571,80.829,7987.557,114.592,53.656,271.374,17.000,6.286,4.712,-6.816,-5.306,3.010,0,0,0,0,0
101713,-402,69,8163,-397.114,82.071,7988.057,114.509,52.344,271.664,4.572,12.429,5.000,-0.824,-13.120,2.904,0,0,0,0,0
101813,-480,74,7973,-397.829,82.729,7987.471,114.868,51.949,271.652,-7.143,6.571,-5.859,3.583,-3.957,-0.124,0,0,0,0,0
101913,-297,90,8035,-396.771,82.814,7988.886,115.449,51.956,271.638,10.572,0.857,14.146,5.811,0.070,-0.139,0,0,0,0,0
102013,-422,98,7803,-398.243,82.343,7989.071,115.104,51.665,271.506,-14.714,-4.714,1.855,-3.447,-2.905,-1.317,0,0,0,0,0
102113,-184,90,7858,-395.614,81.386,7990.743,117.833,50.888,270.331,26.286,-9.571,16.714,27.292,-7.772,-11.747,0,0,0,0,0
102213,-509,124,7702,-397.029,80.643,7990.929,118.589,49.871,270.128,-14.143,-7.429,1.860,7.559,-10.172,-2.030,0,0,0,0,0
102313,-272,63,7823,-393.671,79.443,7992.771,118.755,49.267,268.532,33.571,-12.000,18.428,1.655,-6.042,-15.967,0,0,0,0,0
102413,-538,123,7753,-395.857,78.600,7993.000,119.977,47.993,268.321,-21.857,-8.429,2.285,12.220,-12.735,-2.111,0,0,0,0,0
102513,-271,102,7852,-392.429,76.929,7996.429,120.066,45.019,264.942,34.286,-16.714,34.287,0.898,-29.735,-33.782,0,0,0,0,0
102613,-491,98,7663,-394.429,76.057,7995.514,120.525,44.001,265.979,-20.000,-8.714,-9.146,4.584,-10.182,10.366,0,0,0,0,0
