aX,aY,aZ,gX,gY,gZ,mX,mY,mZ,lb
251,901,7603,93,65,103,-2563,117,-7904,0
389,1548,7279,-76,79,93,-2522,73,-7858,0
235,723,8410,-129,79,85,-2582,37,-7906,0
620,1128,8591,-151,64,104,-2595,55,-7941,0
355,480,8064,333,-46,78,-2588,81,-7955,0
257,506,8457,164,-19,102,-2570,36,-7855,0
450,702,8056,285,-33,87,-2515,2,-7899,0
269,916,7532,123,24,82,-2443,-18,-7875,0
201,840,8001,-44,80,103,-2440,37,-7864,0
168,852,7893,54,72,104,-2455,34,-7859,0
123,1149,7646,-76,78,80,-2462,8,-7860,0
179,782,7919,64,73,98,-2449,-79,-7851,0
394,843,8079,-42,98,102,-2457,-74,-7937,0
239,737,8281,-23,91,109,-2471,-28,-7916,0
226,697,8168,214,21,80,-2489,-77,-7910,0
183,932,7833,15,79,89,-2462,-70,-7923,0
458,917,7719,127,87,101,-2439,-45,-7935,0
131,615,8168,541,-7,68,-2409,-33,-7887,0
367,664,8183,602,-16,64,-2415,-72,-7827,0
383,1424,8097,-232,119,87,-2413,-99,-7838,0
266,878,7603,182,25,103,-2423,-85,-7885,0
206,724,7636,166,41,120,-2427,-31,-7914,0
454,1121,8132,-182,87,92,-2419,-54,-7932,0
197,599,7409,164,9,90,-2420,-48,-7922,0
426,1023,7771,154,31,101,-2415,-28,-7889,0
270,706,8102,396,-27,92,-2436,-48,-7885,0
7,694,7950,231,-19,111,-2421,-97,-7944,0
394,1118,8269,332,-18,105,-2445,-48,-7909,0
220,1011,8005,133,22,115,-2415,-37,-7915,0
228,995,7771,200,40,118,-2415,-27,-7908,0
133,613,7726,39,54,97,-2439,8,-7899,0
288,797,8050,-2,121,108,-2440,-26,-7887,0
448,1299,7632,31,133,114,-2428,-58,-7863,0
585,977,8138,282,92,104,-2415,-8,-7894,0
184,1459,7082,-151,126,112,-2399,-37,-7918,0
254,729,7964,35,29,88,-2382,20,-7935,0
650,337,8467,145,72,101,-2389,-8,-7893,0
595,877,8418,184,38,101,-2418,-40,-7878,0
306,777,8095,170,-4,114,-2390,-32,-7903,0
452,887,7837,147,-7,103,-2399,10,-7967,0
378,1086,8235,91,-13,102,-2396,50,-7917,0
309,860,8452,249,-48,120,-2381,40,-7903,0
119,1177,7963,71,7,99,-2400,13,-7870,0
32,936,7889,99,63,95,-2455,55,-7895,0
88,719,8221,216,95,89,-2429,106,-7917,0
433,672,8336,56,106,106,-2450,130,-7855,0
131,1467,7745,65,61,90,-2503,113,-7893,0
264,750,7909,212,39,66,-2595,30,-7918,0
461,927,7773,32,27,79,-2589,51,-7970,0
330,897,7844,177,1,62,-2578,1,-7961,0
214,1302,8600,173,-14,78,-2532,-61,-7924,0
174,1428,8441,-170,101,92,-2517,-96,-7854,0
-21,1139,7924,162,49,91,-2512,-31,-7882,0
180,378,8543,168,20,92,-2495,-45,-7835,0
-11,508,7519,330,169,2507,-2524,37,-7899,0
-247,1173,7619,-44,39,92,-2544,40,-7813,0
-10,646,7209,124,53,62,-2509,48,-7841,0
130,1039,7610,7,75,87,-2509,95,-7755,0
162,1028,8159,60,49,87,-2510,261,-7699,0
-353,-167,8770,199,66,53,-2481,338,-7767,0
303,639,7457,152,39,102,-2433,257,-7938,0
260,875,7937,65,-3,84,-2422,142,-7999,0
515,944,7334,-29,48,85,-2453,90,-7921,0
74,808,7796,65,38,98,-2480,167,-7779,0
674,812,9118,35,83,103,-2415,223,-7925,0
-18,1105,8142,110,40,84,-2351,204,-7998,0
174,816,8331,235,46,103,-2318,112,-7989,0
884,2019,8674,-63,79,94,-2358,22,-8003,0
246,1476,7108,437,18,89,-2431,126,-8008,0
214,1106,8070,107,3,89,-2439,154,-7973,0
218,1167,7550,-80,82,129,-2447,161,-7895,0
309,1555,7922,-87,67,108,-2485,214,-7981,0
-20,675,8640,261,40,129,-2531,200,-7912,0
574,779,7630,145,7,95,-2605,235,-7904,0
275,187,8313,13,96,135,-2549,181,-7851,0
294,898,7831,69,56,115,-2607,174,-7939,0
48,770,8585,88,94,117,-2611,180,-7863,0
444,611,8246,4,102,95,-2597,156,-7887,0
592,662,8605,64,79,88,-2579,111,-7945,0
91,843,8422,47,47,111,-2573,71,-7944,0
78,973,8198,45,46,109,-2540,78,-7953,0
261,675,7143,196,34,105,-2493,92,-7903,0
437,633,8006,132,9,91,-2504,172,-7922,0
626,1285,7557,200,27,94,-2544,178,-7924,0
68,670,8241,-29,88,92,-2522,85,-7889,0
0,331,8730,230,18,88,-2516,144,-7937,0
89,734,7597,25,73,94,-2520,178,-7947,0
-71,639,7948,137,0,84,-2524,193,-7894,0
673,634,7980,-37,58,81,-2571,170,-7958,0
128,523,8459,47,42,88,-2551,192,-7987,0
136,515,8105,251,47,85,-2592,131,-7977,0
895,393,8167,-7,106,120,-2544,75,-7995,0
-18,537,8066,117,62,86,-2564,46,-7904,0
-79,811,8079,310,-38,58,-2558,172,-7932,0
181,656,8071,13,37,85,-2579,133,-7978,0
120,604,7999,231,14,90,-2568,104,-7976,0
763,309,8263,132,82,112,-2534,142,-7908,0
561,749,8698,38,86,138,-2537,172,-7889,0
225,-7,8268,174,55,123,-2554,144,-7963,0
160,329,8120,187,48,121,-2583,170,-7912,0
108,562,7546,74,70,124,-2578,92,-7945,0
640,245,8259,302,84,142,-2583,177,-7940,0
-105,798,8191,126,13,104,-2618,171,-7960,0
159,461,7799,47,94,129,-2606,47,-7895,0
693,482,7476,83,60,118,-2582,109,-7877,0
415,673,7362,110,9,104,-2584,188,-7882,0
-2,620,8726,61,33,82,-2628,140,-7958,0
270,241,8686,248,31,101,-2593,113,-7936,0
536,510,8522,163,108,76,-2607,139,-7874,0
93,359,7770,229,71,82,-2660,148,-7967,0
485,907,7739,253,26,85,-2612,108,-7990,0
148,305,8126,32,76,83,-2634,68,-7924,0
794,793,8326,-129,89,105,-2536,35,-7955,0
381,1031,7979,-130,79,91,-2526,109,-7929,0
503,406,8201,243,37,99,-2554,155,-7857,0
544,982,6195,-32,46,130,-2565,209,-7934,0
174,728,8255,210,5,114,-2569,128,-7908,0
42,852,7232,85,-10,105,-2524,17,-7880,0
1024,2724,5521,-200,16,96,-2436,98,-7917,0
1253,2013,7259,-824,282,147,-2475,159,-7917,0
217,1086,7957,72,18,102,-2501,147,-7892,0
371,1284,8833,186,17,109,-2506,141,-7937,0
-276,496,7665,26,39,86,-2529,111,-7908,0
-85,282,8524,-186,150,124,-2465,72,-7930,0
606,621,8046,-197,106,77,-2406,177,-7933,0
-342,1281,7376,-4,25,77,-2440,213,-7864,0
513,417,7767,616,-82,83,-2519,222,-7942,0
161,961,7506,957,231,144,-2355,35,-7918,0
213,1922,6837,14,95,110,-2471,158,-7843,0
245,188,8728,109,2,45,-2547,189,-7921,0
448,573,9519,143,13,69,-2535,160,-7932,0
495,1026,7572,-180,130,82,-2468,-52,-7939,0
467,177,8833,-45,118,160,-2393,-18,-7908,0
424,650,8727,41,88,148,-2450,12,-7923,0
372,1531,6622,-207,122,105,-2486,29,-7888,0
33,1991,7123,-843,185,184,-2516,75,-7847,0
374,285,7886,-187,100,152,-2531,111,-7944,0
535,1093,8113,539,39,110,-2510,9,-7985,0
272,-80,8237,148,62,90,-2460,-179,-8002,0
324,695,8420,147,40,73,-2399,-77,-7976,0
-138,178,9138,36,67,165,-2376,-71,-7924,0
590,-35,7641,203,72,114,-2321,-107,-7957,0
291,295,8417,193,41,104,-2328,-29,-7936,0
-172,282,8329,97,101,122,-2465,-42,-7953,0
433,6,7439,204,74,104,-2510,-29,-7931,0
327,590,8079,167,71,78,-2470,-22,-7924,0
-16,208,7509,333,24,74,-2486,-36,-7931,0
-180,558,6811,-13,5,85,-2490,-18,-7924,0
-2,278,9386,9,-18,136,-2477,-15,-7835,0
313,702,7767,72,27,121,-2539,61,-7922,0
-18,-134,8086,647,-91,117,-2574,13,-7897,0
128,439,8039,58,-3,80,-2537,-86,-7951,0
-243,496,7772,-204,-58,101,-2454,-111,-7950,0
85,-34,8466,220,27,149,-2385,-82,-7906,0
277,715,7852,96,26,5,-2425,169,-7934,0
749,-434,9373,404,65,24,-2461,232,-7950,0
203,463,8333,258,75,115,-2542,256,-7978,0
205,153,8710,160,128,130,-2544,249,-7915,0
-209,299,6897,175,99,88,-2576,184,-7936,0
714,1093,7425,-133,131,139,-2554,166,-8022,0
550,529,8371,-96,85,87,-2465,143,-7964,0
308,312,8144,-142,53,91,-2436,180,-7903,0
-32,316,7493,23,-21,96,-2452,278,-7886,0
390,759,7532,-23,-2,108,-2551,289,-7870,0
683,295,7567,299,52,130,-2588,300,-7813,0
711,746,7154,-107,72,85,-2584,159,-7856,0
350,1299,8502,-79,21,93,-2533,211,-7908,0
1033,-325,8577,547,53,135,-2512,198,-7896,0
447,-578,7875,523,-15,-152,-2548,143,-8024,0
6,1933,6190,142,17,176,-2396,75,-8006,0
21,515,8243,131,-52,108,-2441,108,-7966,0
129,44,8877,209,20,146,-2424,150,-8039,0
689,1465,7902,-90,16,101,-2453,179,-7935,0
-84,679,6644,273,3,138,-2509,225,-7977,0
272,-412,8002,217,38,124,-2524,244,-7952,0
664,-251,8739,418,41,131,-2577,171,-8028,0
-247,50,7904,475,-78,58,-2533,189,-7987,0
656,799,6891,509,0,87,-2536,115,-7996,0
270,827,8833,-240,102,119,-2618,109,-8018,0
331,122,7705,538,68,149,-2508,108,-7984,0
608,632,7597,-209,115,81,-2524,118,-8033,0
279,-383,6949,112,113,166,-2460,84,-8021,0
639,136,9422,41,59,94,-2444,30,-7991,0
631,-10,7921,95,80,140,-2396,51,-7998,0
-269,-161,8852,842,-82,102,-2377,45,-7947,0
-852,948,7373,-320,-154,-4944,-2423,80,-7962,0
1741,-309,7229,-84,-164,-5034,-2228,-309,-7897,0
-1463,488,8297,1582,-271,2280,-2442,95,-8017,0
-287,-653,7179,709,0,69,-2439,104,-7988,0
1651,-393,8067,-811,139,1439,-2456,67,-7945,0
-398,158,8091,0,73,113,-2411,149,-7972,0
368,-829,9420,-114,21,42,-2481,135,-7905,0
-235,-164,8444,-407,1,71,-2469,175,-7958,0
-244,697,8507,234,-78,28,-2509,165,-7946,0
1264,-381,7349,584,89,124,-2473,189,-7908,0
818,860,8982,76,-44,83,-2466,191,-7954,0
725,-894,9837,280,59,81,-2466,97,-7939,0
-128,697,7504,-412,44,85,-2467,186,-7984,0
-8,-957,8521,155,29,51,-2473,145,-7955,0
97,316,8673,326,29,82,-2459,160,-7940,0
-94,245,9183,-189,62,61,-2435,164,-7912,0
-169,-306,6240,737,-52,64,-2477,216,-7900,0
701,-1182,9171,476,98,91,-2446,229,-8006,0
820,1025,6724,-340,94,97,-2451,98,-8025,0
11,1131,8181,322,109,92,-2404,164,-7995,0
135,1208,8340,-166,99,115,-2457,150,-7944,0
307,-68,8094,184,20,100,-2447,133,-7991,0
135,131,7298,139,49,116,-2440,146,-7977,0
1054,169,8331,332,58,127,-2426,107,-7958,0
-482,-49,7276,526,-60,81,-2439,145,-7937,0
733,344,7690,-317,207,109,-2454,78,-7852,0
597,955,8225,-217,112,78,-2435,163,-7971,0
-22,-193,8286,545,33,133,-2436,89,-7909,0
33,327,8058,406,14,104,-2425,144,-7955,0
182,1783,6333,-452,42,113,-2471,183,-7948,0
303,-15,9027,120,69,88,-2504,134,-8013,0
234,35,7349,261,28,92,-2475,144,-7974,0
723,231,8662,-443,139,43,-2472,82,-7972,0
317,215,7873,-225,80,43,-2466,136,-7994,0
44,-465,8852,145,-45,55,-2492,120,-7902,0
-94,-612,8111,128,3,68,-2477,127,-7994,0
181,440,7747,280,-48,62,-2431,153,-7933,0
118,-73,9899,15,40,61,-2442,131,-8001,0
322,-505,7361,474,53,99,-2428,167,-7915,0
96,-258,7956,376,-3,29,-2450,92,-7911,0
456,-210,7628,-37,58,74,-2466,175,-7984,0
-412,120,10444,580,-75,46,-2448,149,-7924,0
-212,459,8696,73,66,95,-2477,117,-7951,0
547,841,7002,31,21,53,-2451,151,-7953,0
182,-269,7602,165,4,-195,-2463,60,-7933,0
629,276,8396,292,21,55,-2451,114,-8000,0
177,119,8252,17,80,115,-2449,109,-7901,0
179,-22,7693,615,-59,46,-2455,129,-7971,0
909,1716,5017,-1055,387,184,-2456,147,-7923,0
318,-268,8869,1315,-92,97,-2481,166,-7970,0
-3,-633,7613,80,-104,33,-2474,173,-7959,0
598,33,8256,245,85,83,-2462,118,-7978,0
258,945,6881,220,47,103,-2487,102,-7952,0
-3,44,7906,101,52,91,-2458,95,-7916,0
790,896,8318,-513,224,147,-2500,135,-7939,0
-171,1042,6632,894,-150,156,-2453,106,-7978,0
961,-512,7545,848,193,208,-2440,91,-7963,0
289,566,7136,-472,85,102,-2484,139,-7901,0
102,-384,7262,207,63,138,-2457,73,-7969,0
604,764,7857,-33,113,147,-2429,121,-7936,0
473,1654,7176,-675,93,148,-2398,59,-7917,0
1390,-437,9422,329,136,144,-2417,131,-7989,0
525,2187,6447,-713,203,221,-2353,162,-7979,0
918,885,7567,74,129,212,-2363,180,-7972,0
1072,547,8789,172,94,154,-2315,199,-8006,0
833,995,7728,-190,168,40,-2331,184,-8060,0
362,-366,6712,233,79,143,-2300,88,-8091,0
-59,-388,7503,297,64,31,-2465,60,-8012,0
1189,459,7626,924,13,134,-2462,44,-8085,0
-366,-378,7200,975,-179,21,-2374,-153,-8048,0
-334,-592,8388,712,-128,166,-2246,-104,-8034,0
455,-388,8719,401,-45,123,-2167,-35,-8009,0
650,-86,8945,208,30,150,-2230,80,-7985,0
429,-313,8280,695,37,119,-2265,182,-7854,0
-197,-379,8243,736,-45,63,-2368,207,-7879,0
130,-466,7678,670,32,66,-2399,189,-7903,0
31,-561,9357,1381,107,67,-2385,127,-7914,0
224,-559,8486,622,-43,17,-2408,133,-7888,0
-752,-85,7692,889,-111,68,-2413,97,-7845,0
526,-214,7569,348,-34,47,-2423,144,-7922,0
532,-152,7608,597,92,110,-2389,99,-7865,0
-192,-417,6679,81,-158,9,-2443,84,-7891,0
119,-564,8200,844,63,51,-2445,93,-7879,0
199,-351,7506,610,-10,32,-2455,42,-7848,0
278,-197,7940,278,-38,52,-2455,39,-7913,0
-305,440,8085,103,20,36,-2442,94,-7870,0
1293,72,7761,1005,-28,115,-2491,190,-7887,0
120,457,7786,73,-1,48,-2568,147,-7826,0
470,236,6884,-51,102,67,-2549,77,-7829,0
556,-30,9280,94,207,123,-2547,40,-7846,0
772,-1222,9266,986,16,67,-2557,-36,-7851,0
1066,-929,7911,18,185,163,-2479,-99,-7943,0
497,-275,5410,-219,182,143,-2402,-116,-7879,0
129,-929,7729,200,38,136,-2441,-80,-7888,0
-145,-449,8035,-156,91,130,-2470,-37,-7889,0
-2,-859,9090,-163,173,172,-2414,-127,-7859,0
215,-1573,8654,552,-10,146,-2404,-99,-7932,0
176,-1159,7879,694,-91,126,-2317,-91,-7957,0
658,-1382,7426,741,65,122,-2318,-124,-7920,0
624,-1290,8259,-669,182,126,-2346,51,-7926,0
770,-2276,8073,269,125,174,-2314,108,-7979,0
717,-843,8304,234,124,159,-2383,153,-7978,0
171,-1281,8777,233,22,135,-2431,177,-7969,0
739,-1331,6674,269,64,182,-2474,110,-7866,0
497,-1067,7945,11,66,126,-2447,152,-7858,0
439,-394,8133,352,83,139,-2402,105,-7886,0
229,-1231,7815,-117,56,112,-2403,44,-7913,0
705,-1681,8522,218,62,137,-2394,100,-7919,0
417,-1296,8219,245,2,116,-2448,159,-7908,0
534,-1481,7923,105,43,130,-2410,200,-7778,0
437,-2214,8521,407,1,104,-2468,237,-7844,0
-410,-1529,7275,193,-92,42,-2478,279,-7834,0
526,-1357,7255,881,-16,61,-2527,317,-7822,0
708,-781,7477,86,127,71,-2635,307,-7878,0
316,-1117,8837,451,27,73,-2683,265,-7937,0
280,-891,7689,-113,124,95,-2642,130,-7906,0
234,-768,7594,-220,85,86,-2679,40,-7925,0
201,-1964,8071,27,128,113,-2616,-9,-7984,0
707,-1299,7600,-13,74,97,-2503,-40,-8072,0
197,-1582,8499,-34,73,101,-2344,-78,-8007,0
214,-1554,7966,412,86,123,-2310,44,-7943,0
716,-1113,7530,109,172,131,-2432,153,-7879,0
456,-1269,7392,174,95,134,-2425,151,-7850,0
313,-1689,8584,591,-15,105,-2418,82,-7815,0
701,-1540,7492,440,49,134,-2437,112,-7839,0
348,-1693,7734,56,78,122,-2460,78,-7714,0
232,-1836,8509,338,28,135,-2414,6,-7679,0
-65,-2342,8061,121,-7,83,-2336,-22,-7687,0
456,-1560,8320,672,-26,98,-2298,30,-7685,0
297,-1717,8706,361,35,78,-2312,239,-7631,0
-193,-1533,8580,140,5,35,-2355,380,-7641,0
156,-1819,8117,208,17,36,-2518,396,-7581,0
246,-1246,8297,25,58,34,-2595,169,-7602,0
401,-1121,7241,349,40,53,-2511,62,-7758,0
244,-1202,7805,-1,36,33,-2546,129,-7721,0
249,-918,7997,20,10,21,-2589,109,-7631,0
470,-1352,8320,169,38,63,-2542,47,-7644,0
36,-1556,8032,356,-17,55,-2544,7,-7636,0
485,-1180,8762,456,12,82,-2464,-71,-7688,0
308,-898,8357,117,23,66,-2454,-78,-7852,0
483,-572,8230,120,59,82,-2395,-127,-7949,0
542,-785,7973,107,50,75,-2361,-188,-7952,0
317,-635,7760,345,-1,66,-2365,-193,-7947,0
551,-313,7720,-7,70,90,-2375,-184,-7880,0
650,-200,8321,-63,34,77,-2280,-260,-7916,0
541,-235,8358,139,82,91,-2184,-162,-7872,0
256,-287,8425,94,45,82,-2180,81,-7763,0
417,-111,8192,248,55,89,-2269,353,-7804,0
438,-269,7563,-2,45,89,-2454,487,-7850,0
238,-170,7352,-26,6,96,-2629,461,-7775,0
579,-106,7928,-5,20,91,-2635,331,-7784,0
657,-102,7929,65,11,89,-2706,334,-7817,0
456,-48,8214,200,11,95,-2753,347,-7743,0
712,-50,8192,-225,81,100,-2768,226,-7792,0
696,-125,8450,-174,97,99,-2694,243,-7733,0
778,-195,8402,299,43,103,-2651,340,-7793,0
90,-56,7873,187,-14,92,-2784,361,-7741,0
458,-203,7640,217,5,91,-2849,194,-7770,0
496,-957,8206,200,4,93,-2813,159,-7861,0
532,-178,7799,-392,34,98,-2748,92,-7782,0
379,-1020,7738,-316,52,85,-2617,-5,-7782,0
224,-1131,8230,242,17,81,-2494,6,-7768,0
435,-1343,8298,401,7,86,-2400,141,-7785,0
269,-1008,8129,209,22,87,-2419,274,-7774,0
292,-661,7818,-215,85,93,-2439,258,-7747,0
434,-1088,7960,-64,112,96,-2461,314,-7798,0
419,-1343,8030,171,112,92,-2571,384,-7895,0
193,-1541,7711,416,50,87,-2647,404,-7888,0
467,-839,7943,-24,133,98,-2686,413,-7907,0
663,-1728,8092,-385,167,93,-2788,426,-7956,0
498,-2743,8078,729,-7,95,-2901,409,-8002,0
567,-1466,7505,555,9,107,-3001,276,-7989,0
538,-804,7941,-75,49,110,-3003,160,-8014,0
443,-1568,8246,-106,41,115,-2995,105,-8063,0
372,-1260,7965,-123,47,104,-2925,3,-7975,0
288,-1499,7782,146,-11,99,-2847,-27,-7974,0
424,-1076,7791,100,-8,114,-2839,-65,-7989,0
436,-1291,8051,139,-8,123,-2823,-82,-7939,0
322,-1279,8078,168,6,115,-2779,-84,-7988,0
288,-1018,8154,200,-11,103,-2775,-66,-7951,0
422,-851,8093,171,10,95,-2717,39,-7942,0
278,-785,8033,113,13,89,-2685,32,-7906,0
443,-514,8089,149,18,86,-2748,17,-7928,0
378,-439,7900,92,30,103,-2699,96,-7935,0
384,-501,8093,46,49,104,-2700,109,-7937,0
397,-592,8097,80,45,94,-2693,112,-7924,0
248,-717,7941,207,38,95,-2701,100,-7907,0
382,-735,7843,144,52,88,-2780,106,-7929,0
502,-795,8113,163,81,87,-2747,111,-7925,0
347,-687,8009,101,85,100,-2750,139,-7840,0
373,-553,8118,137,50,98,-2721,100,-7918,0
525,-458,8044,121,49,105,-2716,96,-7901,0
463,-436,7976,167,44,103,-2717,102,-7895,0
341,-360,7765,113,47,105,-2709,103,-7858,0
424,-378,8031,120,9,93,-2728,100,-7907,0
451,-401,8163,132,11,96,-2728,77,-7906,0
444,-471,8074,97,33,88,-2738,69,-7895,0
351,-533,7963,110,20,92,-2713,102,-7938,0
430,-316,8157,58,27,102,-2751,79,-7883,0
511,1371,7545,-38,34,90,-2773,68,-7866,0
343,273,8128,129,23,93,-2734,98,-7891,0
441,12,8011,158,42,96,-2775,58,-7868,0
371,-57,7774,115,44,93,-2773,83,-7877,0
377,186,8020,54,52,98,-2774,92,-7852,0
446,284,8206,122,62,103,-2735,95,-7854,0
392,53,8042,135,36,91,-2775,82,-7894,0
384,47,7949,85,46,93,-2742,56,-7867,0
493,205,8163,85,60,96,-2701,42,-7849,0
404,211,7967,145,43,100,-2738,52,-7895,0
380,89,8025,145,41,95,-2719,34,-7893,0
444,122,8092,69,44,92,-2720,28,-7861,0
518,236,8095,113,54,101,-2725,98,-7842,0
399,148,8068,109,42,95,-2748,39,-7874,0
365,108,7851,117,29,91,-2716,72,-7940,0
397,44,8011,136,29,87,-2716,61,-7870,0
377,114,8072,71,44,87,-2724,78,-7894,0
371,175,8141,74,33,86,-2703,49,-7837,0
506,93,8080,125,37,88,-2700,58,-7851,0
370,118,7967,123,29,104,-2712,54,-7838,0
385,107,8043,157,26,92,-2714,47,-7835,0
452,125,8011,110,33,92,-2709,51,-7842,0
443,119,8279,114,40,85,-2730,76,-7838,0
391,47,8050,133,35,92,-2752,61,-7871,0
362,171,7937,31,48,90,-2728,13,-7861,0
493,120,8006,140,38,103,-2710,74,-7846,0
452,155,8091,130,23,86,-2669,64,-7841,0
432,135,8102,152,26,100,-2670,37,-7835,0
392,95,8139,97,38,103,-2691,48,-7866,0
416,141,7997,150,32,102,-2694,48,-7841,0
441,155,8030,129,36,98,-2725,72,-7816,0
283,101,7885,115,43,96,-2739,73,-7810,0
414,122,7928,135,36,89,-2738,92,-7800,0
415,130,8079,133,30,93,-2717,67,-7837,0
419,195,8071,83,42,97,-2732,79,-7803,0
387,136,7876,116,27,104,-2717,117,-7801,0
409,160,8115,126,26,91,-2688,66,-7791,0
310,149,8126,138,20,96,-2721,77,-7833,0
374,158,8201,100,25,91,-2728,90,-7804,0
471,119,7949,107,40,97,-2719,88,-7844,0
395,133,8029,131,44,91,-2739,122,-7818,0
370,149,8066,127,54,101,-2697,85,-7808,0
353,143,8084,117,47,90,-2662,76,-7874,0
441,129,8031,128,51,94,-2727,97,-7816,0
381,155,8012,113,60,93,-2673,94,-7826,0
384,153,8178,94,70,101,-2696,82,-7876,0
431,117,8076,119,64,104,-2680,64,-7840,0
433,119,7891,106,54,96,-2693,75,-7830,0
425,132,7738,118,48,99,-2698,63,-7841,0
464,130,8080,90,46,98,-2690,78,-7853,0
492,115,8025,118,32,97,-2707,98,-7860,0
412,105,7988,126,37,99,-2726,91,-7883,0
308,128,8008,129,22,90,-2738,97,-7830,0
411,155,7911,124,17,98,-2716,104,-7823,0
462,154,8220,111,15,95,-2770,100,-7805,0
399,133,7986,113,29,102,-2723,100,-7836,0
328,173,8164,95,36,95,-2723,109,-7807,0
386,126,8055,141,34,96,-2743,138,-7748,0
366,133,8103,121,43,92,-2726,141,-7751,0
384,123,8089,128,52,103,-2778,122,-7742,0
449,130,8283,93,62,103,-2775,93,-7755,0
475,140,8499,144,58,88,-2822,128,-7730,0
378,178,8247,125,58,93,-2783,107,-7715,0
442,141,8026,111,58,93,-2758,67,-7825,0
515,105,7998,135,53,99,-2760,48,-7748,0
381,138,7708,115,47,98,-2716,103,-7791,0
365,141,7818,106,36,102,-2733,92,-7732,0
409,178,8139,85,43,101,-2724,76,-7764,0
437,137,8038,149,29,88,-2757,97,-7799,0
427,140,7972,133,26,90,-2733,65,-7786,0
388,99,8051,137,37,92,-2756,38,-7836,0
446,113,7993,83,54,103,-2713,101,-7827,0
418,129,8028,130,36,102,-2725,120,-7751,0
391,203,8119,145,34,92,-2746,100,-7800,0
416,79,7950,139,30,97,-2767,119,-7772,0
384,110,7940,139,44,93,-2767,117,-7792,0
378,105,8155,128,57,93,-2727,110,-7814,0
424,189,8104,79,58,93,-2723,109,-7779,0
475,122,8077,115,49,98,-2726,77,-7813,0
414,132,8176,139,26,97,-2724,72,-7787,0
469,163,8104,74,26,95,-2735,78,-7771,0
427,120,8112,142,14,96,-2722,76,-7810,0
378,122,8044,128,22,101,-2699,86,-7783,0
371,117,8107,136,22,92,-2705,87,-7765,0
390,170,7980,95,36,91,-2711,76,-7801,0
445,137,8120,117,48,99,-2711,89,-7811,0
384,178,7989,123,55,96,-2693,105,-7781,0
382,121,8125,117,46,97,-2736,64,-7790,0
424,136,8065,124,36,91,-2704,63,-7788,0
432,125,7951,90,52,93,-2715,72,-7776,0
381,174,7939,123,36,97,-2706,50,-7781,0
375,146,8037,118,35,97,-2691,55,-7837,0
403,99,8108,161,30,99,-2712,114,-7800,0
401,105,8031,108,39,103,-2677,57,-7788,0
397,153,8093,122,37,99,-2705,79,-7809,0
419,197,8049,91,50,98,-2692,90,-7849,0
415,142,8028,160,37,100,-2683,77,-7799,0
376,144,7984,127,43,97,-2690,82,-7860,0
387,108,7891,90,43,96,-2699,56,-7861,0
411,137,7869,99,64,97,-2733,90,-7801,0
420,151,7927,127,57,102,-2728,90,-7797,0
395,171,7894,116,44,99,-2740,82,-7774,0
393,140,8054,117,39,84,-2718,58,-7841,0
477,139,8220,128,37,90,-2735,67,-7821,0
403,131,7986,153,34,91,-2684,53,-7776,0
428,143,8073,125,34,94,-2711,73,-7797,0
397,136,7969,74,52,99,-2724,58,-7811,0
439,171,7917,90,39,93,-2676,68,-7826,0
433,153,7946,130,35,89,-2719,45,-7814,0
441,134,8021,143,31,95,-2701,31,-7839,0
443,138,8062,88,56,90,-2688,77,-7800,0
450,125,7879,109,30,99,-2733,50,-7799,0
413,186,7838,44,52,98,-2709,74,-7815,0
429,111,8006,138,33,86,-2708,42,-7838,0
441,93,8046,143,30,95,-2689,79,-7822,0
367,158,8073,86,42,96,-2686,101,-7828,0
309,260,7872,119,32,88,-2700,66,-7829,0
425,264,8025,137,18,101,-2701,93,-7812,0
300,619,8067,14,38,87,-2652,51,-7816,0
388,497,8161,100,38,86,-2679,55,-7806,0
380,378,8154,66,29,96,-2686,76,-7763,0
614,348,8196,141,42,97,-2696,48,-7808,0
265,552,7747,101,25,98,-2672,64,-7817,0
362,669,7899,126,22,101,-2705,25,-7767,0
351,652,7974,130,20,95,-2646,58,-7800,0
397,672,8134,119,34,100,-2689,45,-7757,0
428,703,8140,134,43,92,-2655,8,-7805,0
405,767,8018,125,34,88,-2627,-2,-7798,0
431,704,7969,132,38,95,-2565,-28,-7790,0
401,897,8154,-50,53,88,-2564,39,-7694,0
423,957,7821,39,43,89,-2521,30,-7754,0
343,726,8040,148,24,84,-2490,67,-7743,0
426,734,8007,93,42,79,-2451,115,-7740,0
517,1016,7682,1073,-140,80,-2411,117,-7717,0
522,2342,7066,-119,56,74,-2435,198,-7705,0
408,1502,7369,-34,44,72,-2416,252,-7672,0
300,969,8046,144,22,66,-2436,324,-7639,0
332,875,8035,87,19,54,-2452,394,-7678,0
472,921,8117,61,24,54,-2540,419,-7636,0
365,784,7946,90,15,66,-2570,475,-7600,0
405,854,7851,58,19,65,-2624,464,-7694,0
298,865,7835,83,20,64,-2680,514,-7699,0
362,846,8094,108,39,66,-2777,547,-7736,0
396,813,8287,132,50,61,-2871,579,-7767,0
428,774,8119,130,58,54,-2897,515,-7744,0
230,810,8068,170,42,53,-2965,495,-7694,0
368,868,8131,93,53,59,-2977,418,-7679,0
393,822,7860,64,62,63,-2953,370,-7685,0
443,844,8197,121,58,60,-2926,363,-7654,0
430,680,8232,174,64,60,-2959,359,-7663,0
560,1230,7956,-3,82,61,-2961,341,-7601,0
371,803,7713,215,26,72,-2928,315,-7528,0
588,917,8170,133,39,74,-2921,325,-7553,0
573,869,8078,148,59,90,-2959,379,-7469,0
510,732,7937,168,35,80,-2934,385,-7421,0
509,943,7889,99,30,95,-2976,358,-7438,0
485,822,8066,15,45,92,-3002,346,-7480,0
424,808,8001,18,22,99,-2977,378,-7500,0
537,876,8071,121,23,91,-2962,253,-7528,0
386,1172,7664,52,40,93,-2908,194,-7602,0
327,1243,7679,-207,65,87,-2872,219,-7616,0
637,535,8121,-212,86,92,-2834,196,-7658,0
480,172,8569,-43,83,104,-2781,158,-7648,0
354,368,8439,107,7,107,-2733,108,-7608,0
403,662,7964,252,-8,110,-2728,50,-7636,0
406,1038,8386,336,8,103,-2669,-63,-7702,0
295,1012,8139,78,59,92,-2697,-84,-7746,0
239,1205,7749,-55,83,88,-2670,-73,-7738,0
349,1038,7745,111,56,76,-2614,-69,-7720,0
357,586,7944,357,-2,82,-2663,-48,-7757,0
197,323,8449,-47,65,73,-2613,-78,-7796,0
521,1117,7563,89,68,95,-2623,-57,-7768,0
331,778,8175,205,20,67,-2654,21,-7751,0
411,707,8158,260,30,82,-2670,-40,-7827,0
395,848,7579,183,16,79,-2653,-9,-7868,0
321,739,7765,176,-11,85,-2667,73,-7858,0
377,1011,8289,29,-12,69,-2664,79,-7869,0
350,1009,7980,173,-2,73,-2590,73,-7898,0
302,957,7972,57,34,78,-2593,117,-7910,0
371,761,7854,216,30,71,-2626,96,-7900,0
336,1080,8163,268,21,69,-2594,-27,-7909,0
294,826,8347,196,42,72,-2587,-59,-7990,0
436,698,7985,162,41,56,-2548,-62,-7916,0
161,702,8023,209,11,57,-2520,-90,-7885,0
260,859,8159,-4,67,59,-2537,-54,-7869,0
283,1006,8183,153,74,66,-2492,-16,-7816,0
265,1098,8107,40,85,63,-2473,-35,-7779,0
482,1048,7582,242,58,51,-2483,62,-7844,0
443,890,7616,214,24,62,-2529,159,-7776,0
243,778,7924,355,-45,52,-2542,180,-7870,0
652,511,8352,154,-17,57,-2555,186,-7851,0
471,871,8452,120,16,66,-2609,167,-7813,0
331,447,8279,391,-39,74,-2619,24,-7790,0
321,1210,7817,334,-30,56,-2673,76,-7809,0
170,519,8364,596,-37,50,-2692,55,-7731,0
467,317,8181,229,36,46,-2688,49,-7783,0
355,595,8174,367,46,55,-2635,-35,-7752,0
484,1190,7714,57,66,52,-2628,-100,-7748,0
432,470,7831,98,60,53,-2558,-81,-7838,0
147,581,7685,169,76,63,-2504,-72,-7871,0
418,747,8253,95,25,54,-2541,55,-7807,0
456,760,8710,192,23,76,-2477,122,-7861,0
411,881,8417,253,16,61,-2518,110,-7880,0
525,1036,7809,134,24,81,-2553,108,-7929,0
80,1033,7418,197,-13,68,-2495,-11,-8028,0
417,1380,7872,337,-24,77,-2492,-47,-7986,0
426,912,8213,178,27,91,-2487,-96,-7897,0
450,955,8559,101,76,101,-2454,-124,-7939,0
239,1102,7941,-5,95,109,-2458,-5,-7956,0
434,949,7868,112,56,118,-2435,40,-7974,0
754,632,8411,69,60,143,-2421,93,-7894,0
215,579,8419,100,32,123,-2438,55,-7921,0
700,483,7823,311,16,144,-2446,133,-7875,0
375,740,8179,-53,49,130,-2430,158,-7921,0
556,576,8269,286,38,135,-2459,164,-7872,0
617,853,8235,36,89,132,-2501,101,-7886,0
263,683,8803,140,30,112,-2501,88,-7889,0
617,576,7721,32,37,119,-2554,119,-7850,0
877,353,7865,149,67,144,-2593,125,-7799,0
607,749,8267,-21,76,112,-2583,72,-7787,0
500,573,8544,11,85,143,-2571,93,-7825,0
159,738,7660,-117,66,111,-2505,94,-7839,0
469,96,8115,142,64,117,-2502,21,-7859,0
386,1110,7534,107,64,129,-2521,-61,-7897,0
209,238,7690,200,49,121,-2551,6,-7830,0
375,494,8110,298,13,109,-2588,42,-7689,0
291,1017,8707,93,-5,102,-2710,1,-7635,0
322,580,8641,461,-69,124,-2673,-53,-7790,0
494,811,7252,86,16,122,-2608,-71,-7774,0
443,1229,7357,99,-20,123,-2531,-62,-7792,0
377,1325,7365,21,-5,113,-2471,-191,-7834,0
482,811,8065,97,21,127,-2445,-185,-7915,0
832,1200,8814,31,79,137,-2341,-129,-7879,0
526,14,7601,291,15,138,-2337,-71,-7883,0
908,-248,8119,-132,202,158,-2362,52,-7937,0
-94,-215,8109,932,-50,83,-2454,137,-7992,0
-181,277,7962,-76,37,114,-2440,103,-7960,0
478,735,8045,-116,113,129,-2457,49,-7958,0
263,133,8049,170,95,129,-2550,112,-8017,0
162,757,8043,359,25,131,-2610,138,-7973,0
596,93,8511,17,88,97,-2586,69,-7925,0
-25,6,7999,87,-16,78,-2498,-21,-8073,0
-180,464,8144,-75,44,96,-2452,-107,-8003,0
616,945,8080,58,0,96,-2421,-2,-7918,0
262,218,8238,77,12,96,-2326,-33,-7895,0
346,471,8006,408,-27,97,-2315,169,-7888,0
91,130,7947,287,-37,79,-2448,302,-7850,0
-129,-176,7850,539,-36,85,-2584,327,-7822,0
529,1183,6851,499,52,105,-2681,374,-7884,0
-195,168,7944,201,31,78,-2710,314,-7877,0
479,972,7810,125,90,103,-2752,274,-7760,0
-92,728,6872,372,-10,81,-2799,208,-7773,0
552,1040,7724,-409,61,56,-2799,187,-7804,0
105,443,7792,275,-44,80,-2788,99,-7713,0
579,31,7679,403,-11,96,-2795,107,-7734,0
-140,1215,8187,-167,18,55,-2847,69,-7689,0
30,1037,8591,12,12,58,-2722,-101,-7732,0
-71,-34,8014,224,9,75,-2575,-256,-7896,0
54,1147,8389,-63,14,51,-2502,-155,-7929,0
98,30,7533,155,-18,76,-2488,-90,-7916,0
27,272,7932,194,-29,72,-2459,-122,-7879,0
500,432,8749,431,-39,96,-2474,-56,-7875,0
265,441,7773,170,19,96,-2458,-41,-7895,0
534,831,8240,50,-6,98,-2449,-75,-7927,0
100,269,8472,145,-43,108,-2447,20,-7912,0
420,448,8006,-29,15,128,-2461,25,-7898,0
368,158,7899,53,15,145,-2466,-37,-7864,0
454,564,7985,298,-40,145,-2451,46,-7908,0
445,640,7384,53,29,182,-2448,47,-7919,0
546,246,8065,198,31,160,-2456,-11,-7897,0
-226,6,8594,866,-86,144,-2448,69,-7891,0
762,385,9051,120,67,207,-2439,81,-7841,0
542,523,7078,-67,83,201,-2457,72,-7851,0
1092,309,6991,385,22,227,-2437,136,-7912,0
359,-190,9087,679,-163,216,-2432,147,-7924,0
413,548,7514,25,24,246,-2474,92,-7903,0
697,-123,8104,178,24,259,-2464,125,-7876,0
163,325,7370,499,-100,231,-2473,130,-7886,0
551,758,6125,-90,-13,220,-2451,141,-7877,0
662,1174,7813,-247,57,227,-2442,123,-7861,0
620,-156,9034,50,66,254,-2474,166,-7834,0
760,470,7628,69,6,246,-2497,189,-7869,0
64,416,7212,-231,106,265,-2531,238,-7913,0
414,-4,7585,398,-47,236,-2558,106,-7843,0
685,-180,7916,-107,42,249,-2525,112,-7894,0
459,336,8029,-16,-48,213,-2480,146,-7839,0
451,705,7808,-233,1,226,-2504,143,-7811,0
44,566,7992,-437,95,242,-2477,177,-7873,0
901,-403,8519,668,13,229,-2501,230,-7811,0
-2140,1177,8589,-2606,398,213,-2504,194,-7808,0
634,608,7122,1184,-40,273,-2594,246,-7804,0
708,1074,8269,-438,182,241,-2579,252,-7803,0
781,1007,6810,91,43,260,-2576,219,-7768,0
-619,-475,8949,759,-45,167,-2568,292,-7791,0
475,669,8751,-85,74,235,-2555,339,-7771,0
436,105,8118,613,-50,266,-2562,289,-7881,0
-694,383,9050,-393,-9,210,-2555,311,-7888,0
470,194,8242,1373,-189,264,-2558,228,-7790,0
244,324,8306,-180,234,278,-2560,226,-7827,0
681,427,8610,872,-106,241,-2618,299,-7724,0
598,1095,6807,178,66,260,-2645,322,-7740,0
112,-18,7937,865,-94,247,-2638,375,-7762,0
862,-497,8773,328,199,189,-2578,484,-7701,0
557,778,8400,-81,143,248,-2505,363,-7761,0
421,-1,7664,130,90,235,-2536,388,-7757,0
215,142,7588,114,68,253,-2537,407,-7661,0
95,613,7406,663,-24,289,-2490,456,-7635,0
813,710,6884,411,30,265,-2480,549,-7675,0
-90,327,8750,-477,273,278,-2512,519,-7683,0
734,-373,9006,130,207,307,-2561,545,-7823,0
437,270,8317,-458,361,319,-2627,460,-7851,0
562,-91,8708,593,111,287,-2613,455,-7820,0
860,112,8251,72,197,274,-2653,453,-7855,0
1005,152,9219,621,56,276,-2599,447,-7761,0
368,198,8788,1172,-127,221,-2635,554,-7757,0
-433,529,10883,-967,-13,237,-2630,529,-7826,0
805,1234,7301,430,-1,223,-2627,484,-7821,0
20,158,8688,189,70,232,-2671,552,-7801,0
464,-527,7435,1209,126,200,-2693,526,-7846,0
532,-137,8994,594,109,205,-2689,485,-7901,0
153,-450,8880,-38,112,260,-2640,475,-7880,0
1343,-373,8345,-569,40,264,-2644,480,-7743,0
1717,1431,7542,-940,450,262,-2617,601,-7748,0
411,453,8703,1155,-189,213,-2644,679,-7802,0
741,-70,8353,105,146,255,-2717,615,-7811,0
165,198,6483,310,53,244,-2663,582,-7898,0
-386,360,8481,-519,83,196,-2670,525,-7783,0
1279,1239,7141,467,0,181,-2571,603,-7803,0
395,1056,8362,-188,53,160,-2605,697,-7770,0
449,373,8671,-37,47,156,-2623,677,-7753,0
-46,1399,6498,-528,162,152,-2599,724,-7815,0
-284,238,7071,16,93,118,-2612,734,-7776,0
-39,-26,8989,295,-5,133,-2608,722,-7798,0
-303,2781,5909,-522,30,264,-2617,715,-7834,0
259,443,7532,1264,-140,169,-2587,712,-7882,0
609,-282,7932,458,170,116,-2602,760,-7845,0
325,-118,8278,-557,70,157,-2633,730,-7793,0
1347,1304,8097,-416,267,212,-2633,737,-7791,0
49,59,7001,312,-51,115,-2618,689,-7834,0
562,949,7867,-44,110,137,-2592,598,-7832,0
892,449,8852,-293,167,111,-2553,619,-7843,0
433,284,8795,80,76,117,-2514,699,-7777,0
222,1195,7504,-111,74,146,-2584,800,-7842,0
812,-29,8309,-87,182,166,-2604,771,-7852,0
627,147,8755,215,65,142,-2633,648,-7888,0
226,336,8183,564,-47,115,-2579,728,-7898,0
231,1202,8726,139,32,142,-2588,658,-7875,0
38,-213,8139,592,-42,124,-2609,597,-7892,0
-24,572,8132,470,-45,124,-2491,651,-7816,0
27,-27,7881,517,-52,77,-2530,791,-7831,0
204,123,8717,42,-38,90,-2582,809,-7821,0
555,50,6809,125,24,118,-2605,758,-7791,0
223,87,7817,58,-58,96,-2583,714,-7851,0
335,-116,8359,220,-44,60,-2594,692,-7870,0
292,362,8329,171,47,78,-2610,726,-7845,0
216,155,7290,365,-21,86,-2574,725,-7820,0
885,668,7517,-164,41,78,-2566,647,-7759,0
-407,339,9040,326,-56,66,-2597,789,-7805,0
132,257,8154,260,-27,68,-2625,718,-7754,0
447,712,9044,-208,65,54,-2585,702,-7806,0
342,-122,7733,350,20,91,-2586,754,-7867,0
-35,-25,7820,454,-35,91,-2595,731,-7893,0
365,592,8131,-118,111,86,-2592,759,-7826,0
818,464,9063,-11,112,409,-2623,683,-7875,0
496,-82,11027,709,62,8,-2631,742,-7907,0
449,-589,9075,650,207,686,-2610,710,-7821,0
271,-223,7106,-730,183,52,-2627,768,-7837,0
-133,0,7891,298,-12,38,-2621,741,-7905,0
220,-23,7445,297,1,87,-2626,656,-7877,0
102,-217,7806,372,2,71,-2561,670,-7854,0
352,874,7965,-895,285,148,-2552,659,-7788,0
-183,1805,7248,201,-75,131,-2541,801,-7743,0
429,-173,8122,-52,172,137,-2578,822,-7745,0
1498,1468,8727,-427,292,119,-2579,828,-7846,0
444,-160,8266,478,23,116,-2593,754,-7886,0
226,667,8386,-48,47,108,-2565,744,-7847,0
307,440,8407,-45,14,103,-2533,724,-7885,0
-153,-360,8734,956,-40,-70,-2554,719,-7841,0
-35,-457,7760,-283,65,100,-2548,786,-7895,0
-42,234,7552,29,46,76,-2557,721,-7777,0
-119,-134,8066,-27,66,107,-2593,789,-7853,0
282,-35,8765,-32,37,57,-2636,747,-7848,0
124,-392,8150,530,28,55,-2679,695,-7873,0
232,219,8101,24,89,109,-2608,654,-7786,0
701,526,8804,-185,101,82,-2566,716,-7869,0
2,183,9485,-71,49,84,-2476,654,-7823,0
33,-243,7099,4,6,77,-2395,737,-7802,0
282,509,7191,-25,58,75,-2522,861,-7776,0
337,42,7541,-11,-23,71,-2567,835,-7687,0
433,-44,6925,656,44,97,-2641,834,-7751,0
223,-192,8541,680,4,89,-2676,840,-7677,0
237,76,7391,-442,67,115,-2668,805,-7725,0
28,-489,8275,533,34,88,-2696,822,-7796,0
68,107,7749,-621,29,111,-2659,631,-7867,0
56,-254,8098,855,-117,68,-2560,587,-7909,0
382,257,6951,84,58,102,-2516,561,-7760,0
-128,-529,9387,682,-18,69,-2511,714,-7813,0
117,-223,8446,397,32,96,-2510,671,-7753,0
636,82,7526,123,29,69,-2494,725,-7838,0
654,-178,8041,159,-10,82,-2510,502,-7915,0
822,-649,9350,408,25,76,-2438,498,-7763,0
-304,341,7698,-480,44,87,-2429,730,-7644,0
255,773,7488,-181,58,74,-2500,801,-7644,0
362,-69,8121,163,38,121,-2645,1117,-7605,0
323,874,7686,-461,88,94,-2655,890,-7737,0
196,747,8863,427,-84,51,-2639,799,-7874,0
442,-114,7834,14,78,97,-2617,649,-7946,0
-580,-18,7531,-517,-28,48,-2559,594,-7985,0
-591,-14,8527,-425,-75,83,-2584,609,-7934,0
517,821,6554,-150,73,88,-2545,676,-7888,0
52,-78,7973,523,-152,97,-2639,863,-7779,0
569,-22,7836,135,76,118,-2742,939,-7792,0
139,17,8196,284,-14,108,-2768,893,-7748,0
94,196,8068,463,-106,100,-2656,591,-7847,0
-176,-96,8884,852,-171,67,-2487,532,-7813,0
17,91,9260,-471,97,59,-2477,475,-7743,0
465,633,9658,370,1,96,-2455,585,-7780,0
-49,260,7417,353,16,123,-2478,651,-7713,0
510,776,9609,240,84,135,-2534,726,-7803,0
-127,-231,8010,1084,-143,82,-2577,772,-7716,0
-34,-333,8179,853,26,85,-2598,764,-7781,0
124,-611,9008,21,-5,69,-2644,789,-7753,0
469,449,8070,400,27,136,-2631,773,-7849,0
395,-231,7637,119,70,129,-2528,775,-7795,0
225,313,8164,-61,82,115,-2588,754,-7840,0
77,-302,9232,530,16,102,-2625,745,-7828,0
224,204,8571,-326,62,131,-2611,667,-7836,0
147,104,9025,618,-79,104,-2604,681,-7827,0
129,-273,8701,-142,49,111,-2629,708,-7857,0
596,135,8750,507,-15,113,-2610,660,-7813,0
60,184,7250,-280,125,108,-2532,715,-7774,0
503,669,7453,-83,25,70,-2563,759,-7829,0
217,-57,7664,450,-59,64,-2591,703,-7872,0
486,679,7779,56,45,98,-2548,654,-7930,0
135,167,8039,392,-28,100,-2601,748,-7860,0
208,-332,8462,-58,-9,77,-2591,632,-7842,0
375,855,8687,-190,106,79,-2568,699,-7858,0
34,553,7021,261,-44,66,-2574,669,-7818,0
57,429,7480,-3,67,81,-2570,701,-7851,0
-291,509,8976,3,68,63,-2551,662,-7813,0
347,602,8758,296,21,62,-2602,743,-7819,0
409,467,8910,26,95,93,-2593,795,-7785,0
221,606,7804,84,53,94,-2551,775,-7879,0
-145,18,8097,710,-126,65,-2548,782,-7808,0
232,281,8129,28,54,66,-2539,721,-7859,0
368,314,8461,121,63,79,-2541,714,-7846,0
-112,238,7880,97,57,86,-2527,635,-7849,0
-151,241,8465,-42,126,71,-2427,710,-7789,0
-550,598,8175,-620,121,83,-2450,684,-7779,0
-85,913,7048,-349,136,90,-2500,742,-7803,0
768,515,6290,254,80,105,-2543,779,-7776,0
24,433,9133,371,-30,68,-2485,756,-7822,0
94,-34,8278,635,13,84,-2543,735,-7784,0
233,1091,6773,353,-21,132,-2558,704,-7776,0
-536,564,8233,-114,17,42,-2560,746,-7784,0
205,-95,8200,325,7,69,-2561,703,-7819,0
-241,53,8360,1071,-315,7,-2613,688,-7762,0
73,563,8010,-260,36,50,-2606,683,-7810,0
-415,583,8109,888,-249,43,-2578,718,-7843,0
-464,-206,6905,443,-89,23,-2603,645,-7786,0
-759,-371,8506,1745,-364,-9,-2577,644,-7879,0
312,-399,8160,492,3,14,-2527,602,-7831,0
-47,1011,8241,-51,68,21,-2565,686,-7821,0
346,912,7823,862,-195,71,-2595,624,-7813,0
-52,873,6016,266,-35,4,-2575,695,-7829,0
-791,367,7246,143,-16,-1,-2615,676,-7779,0
-129,517,10458,342,-42,-25,-2605,687,-7794,0
-823,-266,8079,873,-80,33,-2578,669,-7792,0
-749,-304,7884,-148,-107,19,-2590,637,-7854,0
0,760,7512,-355,84,-5,-2560,579,-7893,0
-429,-76,9044,205,30,14,-2567,565,-7869,0
-534,1058,7638,50,-63,0,-2566,638,-7768,0
-270,-372,7115,1153,77,-9,-2591,587,-7760,0
16,-332,7774,-842,160,60,-2670,708,-7701,0
-586,-274,8617,1659,-47,4,-2670,651,-7712,0
446,-783,8140,-115,77,24,-2611,661,-7774,0
-768,1311,6259,-353,57,46,-2563,569,-7743,0
644,771,8004,578,-4,30,-2534,604,-7899,0
233,28,7322,448,36,67,-2548,649,-7859,0
-870,-150,6872,273,6,69,-2520,610,-7988,0
73,545,8358,19,91,94,-2546,614,-7854,0
-281,470,7941,409,-36,54,-2522,499,-7883,0
-156,407,6614,679,-24,34,-2538,550,-7842,0
-872,696,8453,-609,133,35,-2552,628,-7865,0
294,588,8337,403,-36,53,-2571,594,-7820,0
-6,-280,7685,298,-7,64,-2580,585,-7883,0
-213,951,7192,-387,73,78,-2603,628,-7847,0
308,-396,8733,719,-49,80,-2545,567,-7876,0
716,464,8905,-171,30,40,-2509,553,-7986,0
-359,553,7440,367,-74,70,-2559,491,-7825,0
316,336,9934,518,7,62,-2504,543,-7927,0
539,-273,9563,1558,189,45,-2546,449,-7822,0
539,-162,8936,-380,108,53,-2560,510,-7755,0
-920,655,7949,-1064,112,106,-2606,585,-7659,0
2083,2629,6254,-949,491,177,-2593,728,-7729,0
346,-296,8867,788,60,125,-2554,626,-7794,0
-8,428,6604,48,122,121,-2540,575,-7808,0
235,-325,9829,365,-3,66,-2493,572,-7808,0
498,687,8853,-539,173,109,-2545,584,-7816,0
532,712,7511,-58,60,64,-2537,560,-7796,0
377,271,8535,-291,116,67,-2537,605,-7875,0
-1390,1619,6697,198,76,37,-2516,636,-7834,0
1097,113,7582,651,85,138,-2545,546,-7879,0
222,-92,8409,756,4,109,-2530,580,-7885,0
498,663,7705,506,0,24,-2554,529,-7916,0
1131,58,7917,514,43,66,-2517,574,-7933,0
359,564,7240,375,-25,157,-2516,545,-7886,0
-405,-306,8153,1178,-94,100,-2513,554,-7937,0
1104,-34,8576,286,158,164,-2556,560,-7874,0
433,120,8767,393,24,150,-2491,545,-7877,0
1294,-59,8069,-350,160,134,-2478,548,-7861,0
99,156,10027,-19,76,99,-2511,581,-7773,0
669,265,7346,-17,112,106,-2494,630,-7801,0
1231,63,7374,178,66,96,-2480,574,-7889,0
995,-607,8406,278,167,95,-2430,506,-7908,0
52,-189,8489,-235,13,104,-2541,523,-7784,0
61,164,7826,-197,-1,86,-2576,720,-7849,0
798,-255,7573,53,60,131,-2545,578,-7862,0
458,816,6794,2,18,108,-2493,598,-7905,0
251,937,8208,-12,30,135,-2490,533,-7872,0
-348,589,6669,685,-97,68,-2455,591,-7934,0
257,-284,8082,323,112,106,-2464,584,-7849,0
820,545,7369,-186,215,123,-2501,571,-7846,0
882,1068,7730,-410,118,46,-2543,599,-7818,0
-413,330,9545,759,-147,82,-2533,595,-7886,0
-400,-84,7324,678,-143,89,-2532,602,-7837,0
788,368,9034,-405,200,97,-2528,576,-7852,0
-51,-1518,7755,323,-41,28,-2556,630,-7872,0
623,880,7043,-632,315,116,-2531,554,-7926,0
708,-175,7438,317,35,86,-2510,636,-7873,0
712,-694,8723,775,11,103,-2513,532,-7945,0
-37,-266,7271,-1033,17,60,-2500,561,-7859,0
707,165,8404,53,50,76,-2515,561,-7863,0
175,190,7192,-228,127,106,-2545,593,-7936,0
313,-36,8201,129,104,105,-2476,537,-7854,0
267,348,8780,84,69,82,-2500,585,-7866,0
-8,-158,7111,404,-31,79,-2494,559,-7804,0
554,342,7482,-518,166,87,-2520,604,-7874,0
1,48,8816,107,-10,101,-2547,625,-7859,0
636,57,8841,141,14,110,-2533,597,-7947,0
388,406,8657,56,60,123,-2513,558,-7907,0
757,-152,7464,237,40,137,-2489,464,-7821,0
382,-262,8071,-118,-21,137,-2490,646,-7629,0
446,1302,8859,-371,168,150,-2416,700,-7657,0
121,248,8661,832,-198,105,-2384,647,-7643,0
1005,-214,9680,-100,77,42,-2416,798,-7663,0
-417,-228,7865,1450,-66,66,-2406,814,-7844,0
219,-316,8188,348,-99,31,-2417,562,-7863,0
-20,-420,8331,-783,10,74,-2489,599,-7911,0
86,1328,7989,235,-67,46,-2502,603,-7857,0
1875,-307,10331,727,81,128,-2503,619,-7941,0
-796,-222,7832,1267,-281,38,-2491,592,-7876,0
-334,-255,9520,420,5,49,-2512,618,-7932,0
962,-174,7416,-127,30,74,-2511,635,-7907,0
230,-199,6048,375,-45,79,-2551,532,-7925,0
758,460,8771,36,50,66,-2551,614,-7917,0
537,-338,9876,604,-15,66,-2565,540,-7981,0
242,-222,7980,402,77,93,-2492,543,-7944,0
122,-41,7211,-476,95,116,-2449,497,-7842,0
-53,-239,8596,449,4,91,-2440,657,-7773,0
847,-208,7978,52,138,142,-2390,589,-7825,0
250,338,7694,-203,161,153,-2405,605,-7871,0
18,50,8781,75,56,112,-2523,631,-7739,0
559,155,6866,567,-83,90,-2568,686,-7770,0
713,-592,7997,613,30,112,-2592,671,-7797,0
159,424,8867,-519,97,98,-2560,568,-7857,0
378,89,6242,-166,64,100,-2535,530,-7913,0
1014,241,8139,102,90,137,-2397,562,-7900,0
383,-10,7117,246,55,108,-2543,835,-7730,0
214,375,6818,463,-30,107,-2694,849,-7751,0
704,639,7354,-164,138,132,-2771,766,-7780,0
-351,56,7772,-838,15,99,-2714,641,-7762,0
1234,2225,6518,-853,314,144,-2687,617,-7706,0
409,685,8221,325,-58,108,-2688,703,-7695,0
417,337,8977,136,31,104,-2746,689,-7787,0
51,690,8024,-127,117,103,-2746,696,-7697,0
283,-235,8359,235,30,110,-2706,777,-7673,0
503,607,8699,-392,133,120,-2746,819,-7507,0
631,96,8266,205,45,113,-2786,738,-7637,0
571,444,6249,51,77,124,-2803,720,-7694,0
4,74,6396,-49,73,160,-2888,568,-7658,0
678,53,7990,298,27,99,-2760,519,-7604,0
630,148,7321,107,69,127,-2739,501,-7615,0
778,441,8629,37,131,138,-2593,510,-7646,0
565,-158,7477,419,40,139,-2467,490,-7710,0
269,9,7685,-78,58,154,-2451,588,-7775,0
493,346,8627,-287,46,124,-2536,612,-7787,0
612,47,7406,183,18,144,-2550,625,-7853,0
324,429,8033,-65,107,122,-2554,646,-7880,0
408,683,8132,123,39,122,-2541,639,-7885,0
60,-36,8775,336,-54,126,-2543,671,-7903,0
927,262,7551,-309,121,159,-2511,593,-7949,0
138,1708,6896,-289,3,104,-2480,557,-7909,0
694,-991,10817,1537,-12,25,-2576,491,-7789,0
465,-240,8567,-402,87,115,-2576,609,-7773,0
-548,-113,6285,1029,-148,74,-2488,537,-7867,0
768,-531,8289,21,50,118,-2430,598,-7837,0
365,506,8232,-478,93,75,-2496,689,-7800,0
157,-138,8115,-131,15,56,-2587,690,-7863,0
-466,-139,8816,673,-155,60,-2600,620,-7797,0
241,225,9103,19,75,82,-2559,581,-7858,0
59,262,7385,-109,23,55,-2536,696,-7764,0
61,636,7172,-53,4,44,-2591,630,-7839,0
531,-249,8739,528,14,36,-2602,648,-7729,0
94,122,7799,98,4,55,-2686,670,-7701,0
366,278,7930,301,-23,35,-2639,839,-7689,0
-118,-491,9175,276,61,61,-2676,628,-7950,0
-27,446,7890,-609,141,42,-2626,557,-7888,0
360,-220,7805,503,115,141,-2664,515,-7854,0
-410,679,8188,-551,80,75,-2680,548,-7804,0
176,317,7477,292,-28,45,-2680,481,-7767,0
387,-440,8102,488,164,121,-2686,482,-7849,0
-420,-265,7355,-178,-34,76,-2596,393,-7748,0
269,531,7077,-544,143,2,-2536,497,-7766,0
1029,919,7312,-599,387,73,-2620,516,-7766,0
-360,1202,7124,1,98,52,-2583,505,-7787,0
245,149,7944,464,14,50,-2504,532,-7774,0
-81,-130,7098,-411,124,105,-2536,533,-7871,0
-57,653,6664,106,-21,83,-2478,501,-7819,0
-74,395,9167,117,-19,37,-2484,480,-7826,0
980,977,8161,-319,220,59,-2565,632,-7813,0
-235,-362,8787,1014,-163,19,-2584,601,-7749,0
-13,-44,6821,284,-53,64,-2584,630,-7809,0
3,32,8496,69,67,78,-2627,572,-7748,0
436,-497,9074,497,154,104,-2645,645,-7796,0
71,-418,9327,169,71,64,-2644,565,-7751,0
367,-621,9469,363,157,56,-2625,575,-7771,0
258,-562,7267,-386,149,115,-2608,615,-7731,0
202,135,7091,294,24,67,-2653,655,-7787,0
499,-267,7017,419,89,78,-2726,554,-7937,0
220,-270,6577,-184,48,86,-2690,356,-7920,0
-662,114,6783,-192,-86,94,-2603,407,-7888,0
110,683,6420,156,12,99,-2618,345,-7936,0
572,296,7838,19,36,100,-2583,363,-7909,0
315,-177,7141,240,13,99,-2523,317,-7885,0
424,-367,8216,-180,39,84,-2534,428,-7893,0
541,336,8887,43,131,101,-2520,472,-7857,0
-196,-359,9388,733,-45,31,-2519,514,-7851,0
-16,-100,7917,180,21,65,-2523,579,-7800,0
522,180,8141,36,101,87,-2522,495,-7859,0
404,-594,7448,695,36,68,-2506,516,-7865,0
45,-106,5692,132,-6,100,-2503,493,-7865,0
-349,394,6368,26,-7,79,-2519,573,-7961,0
-21,-1,7278,71,17,37,-2558,434,-8038,0
32,-417,8555,206,27,71,-2492,386,-8085,0
-531,17,8566,404,-64,46,-2512,275,-7968,0
245,15,7607,312,67,60,-2434,323,-8037,0
387,92,8117,-301,117,20,-2462,454,-7903,0
84,245,8543,309,39,27,-2452,455,-7860,0
-83,-833,9623,351,-35,-8,-2463,499,-7784,0
-46,326,7452,-135,88,11,-2511,442,-7827,0
-488,-401,9088,416,34,9,-2496,472,-7838,0
-481,415,7443,-4,65,-3,-2496,435,-7884,0
65,-336,8379,195,55,31,-2512,449,-7847,0
297,213,8240,388,10,17,-2467,421,-7820,0
-456,166,7010,-255,107,41,-2486,458,-7855,0
223,1027,7044,35,46,48,-2515,471,-7871,0
-27,-102,8584,424,-57,25,-2470,457,-7880,0
-35,712,7459,-419,138,46,-2483,461,-7827,0
-512,-182,7892,730,-93,13,-2494,392,-7873,0
82,27,7788,-479,137,23,-2461,443,-7798,0
-489,116,5449,-430,48,13,-2517,399,-7836,0
-829,190,7052,-622,62,3,-2510,409,-7785,0
286,335,6309,25,-35,14,-2517,381,-7776,0
-159,420,8044,-150,37,23,-2507,419,-7869,0
-310,275,7473,602,-139,-4,-2509,422,-7735,0
-82,69,7257,112,16,14,-2510,382,-7782,0
-405,-19,7355,-665,18,38,-2506,361,-7795,0
-361,827,8490,141,-60,5,-2497,323,-7825,0
60,-516,9238,-628,42,24,-2453,358,-7888,0
358,918,6762,-324,81,24,-2437,259,-7823,0
-53,-114,7953,491,-140,-17,-2470,359,-7856,0
298,143,7662,-193,78,29,-2490,346,-7842,0
193,-247,8577,425,57,54,-2515,451,-7931,0
-38,-358,8409,714,-15,5,-2556,432,-7878,0
-609,538,8009,394,4,31,-2589,488,-7872,0
-531,182,7808,71,-22,-28,-2547,432,-7857,0
865,910,9500,-251,118,12,-2524,411,-7818,0
-34,-577,11453,1324,-116,-36,-2539,391,-7810,0
324,-1220,9616,863,-124,53,-2575,370,-7783,0
442,440,6189,-423,204,68,-2546,429,-7771,0
-2,-269,7346,915,147,5,-2521,344,-7764,0
-568,-47,7699,-568,54,25,-2476,386,-7811,0
-210,1160,6291,-149,41,32,-2478,359,-7763,0
-398,128,8140,264,93,68,-2492,353,-7772,0
1334,644,7853,197,-18,45,-2500,379,-7785,0
-18,442,7190,86,-64,35,-2527,293,-7810,0
-389,-111,9826,574,55,17,-2490,318,-7798,0
167,393,6761,-233,105,61,-2465,277,-7802,0
-588,527,5828,-80,0,12,-2464,321,-7856,0
-23,-10,8587,279,-24,34,-2491,240,-7877,0
-750,-436,8192,131,-6,9,-2485,310,-7829,0
727,832,9058,-60,169,21,-2494,317,-7780,0
-298,229,8286,586,2,47,-2463,258,-7851,0
-603,-392,8408,61,-10,-16,-2469,294,-7842,0
271,452,7792,-685,85,-30,-2463,287,-7867,0
-149,481,8299,-115,101,13,-2496,293,-7845,0
518,-154,9191,18,113,-3,-2458,191,-7805,0
-141,406,8755,-304,169,36,-2505,313,-7854,0
-169,200,8506,8,44,1,-2465,236,-7770,0
142,-217,8209,372,14,8,-2461,221,-7822,0
-805,162,8160,-246,-87,-15,-2514,263,-7856,0
-30,-108,9046,301,-38,-26,-2482,241,-7890,0
256,-379,8210,256,53,-6,-2428,273,-7835,0
-396,706,8621,-546,37,-54,-2500,259,-7895,0
-333,279,7975,793,-71,15,-2457,275,-7923,0
-320,-24,8966,-121,13,-26,-2418,193,-7951,0
-623,484,7708,15,24,-12,-2342,138,-7880,0
-456,-43,6057,604,-62,-28,-2347,129,-7904,0
-932,249,8873,203,-36,8,-2430,165,-7891,0
-296,195,8203,284,38,31,-2440,246,-7862,0
253,-53,8584,423,89,46,-2446,226,-7900,0
773,-622,8018,321,167,10,-2423,192,-7880,0
702,697,7691,2,198,33,-2431,155,-7916,0
58,968,6582,8,81,10,-2411,158,-7869,0
115,-129,9354,9,172,38,-2397,130,-7930,0
-597,1018,8390,-141,83,22,-2409,136,-7893,0
316,256,8675,990,-120,44,-2384,111,-7910,0
-127,148,8306,-288,101,-19,-2470,108,-7889,0
367,1000,8823,58,92,6,-2427,303,-7842,0
172,-413,8546,852,28,54,-2284,137,-8076,0
273,432,6820,77,63,39,-2219,37,-8048,0
-366,-127,7667,722,-181,37,-2279,14,-8057,0
519,-432,7617,362,166,106,-2277,68,-7943,0
1012,245,9945,263,95,127,-2246,67,-7896,0
-360,709,9810,114,34,50,-2273,119,-7948,0
348,-412,10646,337,-40,42,-2302,40,-7898,0
-808,-641,8940,496,-64,73,-2359,116,-7908,0
-330,647,6732,-53,67,78,-2397,118,-7868,0
-301,-253,6559,387,-8,39,-2468,166,-7884,0
474,1135,7434,-89,147,84,-2494,171,-7877,0
1383,33,9327,-293,218,80,-2499,36,-7899,0
875,1290,7401,598,-88,12,-2323,75,-7767,0
393,422,7237,533,25,92,-2351,97,-7898,0
796,11,8540,323,58,87,-2382,94,-7977,0
135,180,8597,-197,181,83,-2397,-7,-7951,0
-426,638,7419,-458,186,91,-2428,76,-7979,0
911,1083,7145,-724,390,119,-2408,86,-7936,0
-237,1019,7364,-128,0,82,-2343,-64,-8070,0
-45,1215,7872,241,-55,82,-2293,-156,-7844,0
325,322,8103,703,-94,77,-2304,151,-7704,0
-131,451,8409,345,-72,62,-2381,317,-7791,0
301,-286,8411,143,37,81,-2409,125,-7928,0
516,330,8020,-91,21,57,-2362,114,-7916,0
-105,-296,8943,974,-136,68,-2382,126,-7966,0
173,-346,7960,-175,37,56,-2415,91,-7963,0
53,857,6413,-603,162,97,-2441,14,-7952,0
97,-112,9023,-191,87,77,-2415,88,-7945,0
-210,478,6816,218,-53,68,-2431,102,-7869,0
309,175,7959,384,-36,53,-2461,128,-7910,0
-36,-100,9146,345,-25,60,-2419,54,-7868,0
0,-92,7149,371,-45,39,-2418,41,-7908,0
-250,-133,8486,638,-11,42,-2419,68,-7862,0
261,-237,7981,352,124,78,-2448,111,-7782,0
-218,-61,8152,251,-16,69,-2437,25,-7924,0
158,72,8161,336,12,59,-2353,-78,-8057,0
94,-382,7659,193,68,77,-2358,-36,-7933,0
220,663,6824,-75,83,96,-2355,46,-7925,0
661,616,8626,-84,129,113,-2370,19,-7941,0
48,772,8201,265,-33,118,-2360,-53,-7853,0
293,311,8357,38,27,114,-2349,23,-7910,0
60,142,6199,253,-56,137,-2335,2,-7869,0
101,-251,8036,238,-26,125,-2392,5,-7983,0
451,-355,8898,72,17,132,-2381,2,-7961,0
50,568,6501,-253,25,149,-2356,42,-7912,0
644,-736,8500,475,-42,106,-2404,102,-7954,0
773,-330,7915,-213,56,125,-2397,85,-7917,0
22,-347,7294,362,8,133,-2423,127,-7941,0
639,-499,9099,355,-90,132,-2419,-68,-8077,0
379,354,7657,26,-30,119,-2303,-24,-7875,0
487,993,7842,-392,56,113,-2413,76,-7877,0
-67,489,8196,56,-76,79,-2404,70,-7881,0
-36,164,8599,-241,-22,100,-2469,19,-7885,0
-496,205,8086,-45,-51,108,-2463,114,-7884,0
-127,-134,5939,385,-51,93,-2489,39,-7851,0
53,-94,7979,242,-140,92,-2484,73,-7855,0
-383,-5,9321,58,-78,78,-2456,64,-7863,0
144,220,8612,169,-20,101,-2476,45,-7819,0
-684,-315,8325,120,-41,87,-2473,80,-7809,0
-260,-998,8485,645,-5,876,-2523,72,-7861,0
-572,125,7613,138,-43,122,-2466,85,-7850,0
-528,-210,7849,280,6,87,-2545,105,-7841,0
-434,618,6017,205,13,261,-2541,169,-7815,0
49,-514,8327,593,46,4,-2528,89,-7852,0
-327,893,7355,-767,251,104,-2512,152,-7820,0
62,496,8059,518,-16,86,-2518,127,-7816,0
-944,70,7515,-149,37,44,-2532,141,-7826,0
-373,155,8689,3,68,56,-2508,107,-7842,0
325,509,8307,-200,146,71,-2483,119,-7872,0
277,-197,9247,-48,95,51,-2452,84,-7872,0
-368,302,7577,432,-49,65,-2410,50,-7904,0
-418,573,7222,-69,12,61,-2433,24,-7879,0
-310,6,8777,495,-21,70,-2483,47,-7881,0
467,547,7447,-43,9,74,-2443,137,-7801,0
-485,-299,8411,347,-75,41,-2461,121,-7780,0
-431,-165,8265,492,-27,53,-2505,125,-7819,0
-384,-168,7119,99,36,-15,-2522,70,-7798,0
-496,308,7889,242,30,89,-2490,110,-7887,0
40,143,7989,-425,141,108,-2507,68,-7853,0
458,-261,8259,290,107,73,-2504,108,-7860,0
-179,198,8598,68,28,95,-2476,175,-7812,0
-204,-320,8353,209,89,49,-2498,98,-7873,0
-531,333,7174,-139,79,116,-2481,180,-7820,0
-39,-401,7498,-273,72,112,-2492,50,-7889,0
22,814,7370,0,112,168,-2496,137,-7864,0
280,1171,8135,-38,115,121,-2469,98,-7817,0
-554,927,7838,631,-125,119,-2473,128,-7818,0
-316,472,8985,-127,20,62,-2495,130,-7802,0
-96,-495,8426,368,70,28,-2504,95,-7859,0
-395,-380,10038,146,40,82,-2518,132,-7851,0
-305,127,7946,-387,107,108,-2515,132,-7905,0
327,-50,7622,67,27,108,-2468,136,-7859,0
-443,474,8393,-301,54,111,-2499,88,-7890,0
-210,456,7349,514,-47,95,-2468,49,-7889,0
-356,-62,7485,63,60,85,-2462,-1,-7854,0
67,-97,6789,-13,179,130,-2434,97,-7876,0
50,470,8529,-348,194,118,-2496,91,-7822,0
-254,45,7936,53,41,85,-2466,115,-7864,0
-86,68,9021,148,0,80,-2428,83,-7863,0
387,512,7455,-203,180,90,-2446,117,-7859,0
-76,-41,8375,324,56,116,-2473,159,-7836,0
-21,510,7277,-1,110,122,-2440,151,-7925,0
-4,-500,7989,631,18,98,-2482,160,-7860,0
-418,283,7545,-174,105,144,-2455,117,-7855,0
671,973,7198,223,61,100,-2434,145,-7884,0
-248,-290,7193,161,70,78,-2420,84,-7905,0
-498,-33,7327,-383,109,120,-2456,114,-7904,0
131,-302,9651,439,24,96,-2460,124,-7883,0
0,-307,7878,189,37,71,-2506,155,-7966,0
-29,230,9028,-160,109,90,-2495,151,-7936,0
626,-121,8108,278,92,111,-2519,16,-8031,0
-372,86,7539,342,24,92,-2512,5,-7991,0
-45,206,8174,593,-41,74,-2470,-24,-7856,0
258,-86,7488,-868,100,121,-2464,24,-7939,0
750,1411,10166,6,60,72,-2438,101,-7854,0
-177,-2454,9426,1307,-130,-101,-2469,110,-7920,0
-812,199,7162,-828,144,60,-2467,108,-7858,0
-344,464,7819,-129,116,71,-2488,76,-7909,0
-465,-638,8605,433,25,81,-2458,115,-7858,0
-168,328,9806,-958,104,78,-2437,92,-7872,0
-351,2621,5721,-273,17,168,-2483,113,-7873,0
-337,-583,6478,1421,71,25,-2480,37,-7879,0
931,-342,7910,-1084,294,169,-2444,64,-7920,0
2268,2500,7516,-978,599,154,-2469,48,-7878,0
-295,-97,8145,1345,59,65,-2437,59,-7882,0
388,-318,7813,-1443,242,144,-2467,101,-7898,0
-676,1647,7801,-222,71,160,-2512,89,-7903,0
-267,269,8161,336,40,90,-2486,118,-7938,0
-318,-882,9031,717,23,79,-2461,-20,-7864,0
59,304,7802,-225,149,81,-2519,98,-7888,0
459,-1180,7987,1377,66,-13,-2461,68,-7887,0
-1501,939,8680,-1988,195,139,-2429,-16,-7850,0
-99,562,6695,281,-49,47,-2364,55,-7818,0
-118,58,8069,-299,83,51,-2419,92,-7916,0
86,282,7661,242,-42,46,-2391,61,-7875,0
276,61,8097,52,25,53,-2416,-27,-7881,0
-571,85,8940,-313,-8,15,-2401,27,-7912,0
178,121,10411,684,-102,15,-2431,-19,-7844,0
614,-200,10012,56,88,47,-2449,62,-7924,0
-605,389,7169,-355,55,28,-2400,24,-7885,0
-239,-425,8515,433,-8,30,-2452,-44,-7888,0
-653,-363,8726,913,-86,8,-2390,20,-7799,0
-90,-170,7011,-213,23,47,-2428,-25,-7883,0
-501,979,6572,350,-51,6,-2451,38,-7849,0
-385,-222,7316,749,-46,7,-2476,-56,-7823,0
89,-298,8733,-116,30,-10,-2379,-8,-7828,0
1100,1783,7724,-644,335,41,-2377,4,-7832,0
29,984,8049,698,-95,59,-2377,-32,-7885,0
266,-267,6697,173,99,52,-2344,43,-7906,0
230,386,8109,-343,133,78,-2516,29,-7834,0
-234,-223,7501,612,-28,72,-2416,-131,-7933,0
210,-155,8568,-83,101,98,-2463,21,-7806,0
-914,709,7017,-567,146,48,-2514,-71,-7793,0
547,733,8464,223,80,76,-2511,-104,-7832,0
-368,-588,7747,499,3,92,-2427,-62,-7948,0
122,-34,8260,-295,88,56,-2397,-15,-7946,0
395,-35,8131,185,73,90,-2415,-68,-7947,0
-52,230,7744,308,6,78,-2429,-62,-7952,0
-99,-136,7007,580,0,73,-2412,-69,-7891,0
-281,-332,8053,235,1,63,-2424,-36,-7985,0
377,0,8574,764,-10,65,-2440,37,-7958,0
-258,-168,8289,325,69,89,-2422,-65,-7945,0
-68,392,8199,-3,42,64,-2368,-99,-7962,0
-102,-159,9441,390,-22,71,-2391,-102,-7922,0
-2,-262,7596,255,65,66,-2424,-107,-7978,0
464,-142,7659,566,49,94,-2401,-153,-7935,0
-22,-135,8082,583,1,92,-2374,-31,-7966,0
557,662,9085,7,109,89,-2417,-49,-7931,0
14,-155,6696,373,-10,45,-2460,-75,-7968,0
-181,-488,8750,32,-19,60,-2436,-45,-7996,0
531,138,8459,-205,80,100,-2437,-75,-7989,0
-168,44,7274,655,-73,70,-2424,2,-7961,0
288,-70,8067,-79,86,74,-2433,-64,-7885,0
-109,734,7759,-58,72,72,-2373,-36,-7911,0
194,-348,8837,707,-6,59,-2385,-1,-7957,0
342,-275,9792,515,38,52,-2448,16,-7972,0
-48,316,6809,39,36,71,-2367,-17,-7932,0
141,28,7354,713,-68,72,-2365,-90,-7987,0
-248,-65,6794,69,27,16,-2370,-99,-8040,0
188,-493,9177,-412,36,93,-2399,-128,-8007,0
211,455,7489,157,-49,64,-2400,-108,-8006,0
-3,-10,8553,130,10,98,-2421,-98,-7971,0
-367,196,6703,451,-123,68,-2403,-113,-8004,0
668,-325,8402,-531,22,67,-2383,-112,-7967,0
276,1195,7194,-793,256,143,-2453,-60,-7944,0
287,913,8016,630,-157,61,-2418,-60,-7882,0
8,-386,7229,18,-11,58,-2398,-182,-7901,0
1190,1489,7355,-1204,426,94,-2423,-84,-7914,0
-1852,3,8577,2162,-624,29,-2404,-96,-7863,0
749,-157,9151,-530,52,115,-2416,-105,-7886,0
-899,1638,7173,-212,-50,104,-2408,-86,-7873,0
-611,342,8206,1320,-287,10,-2411,-124,-7864,0
-193,-1888,8835,750,-156,-8,-2409,-151,-7880,0
220,-87,8119,-1589,-71,37,-2434,-195,-7856,0
-642,1456,8309,-224,-12,51,-2476,-128,-7881,0
-1496,-375,8152,1324,-186,22,-2545,-111,-7754,0
834,193,6490,-709,119,118,-2547,-61,-7787,0
-267,-153,7718,-173,42,89,-2535,-49,-7750,0
359,1051,7971,-669,281,144,-2529,-55,-7767,0
-118,367,7843,871,-107,147,-2491,-57,-7830,0
656,-1198,7202,1348,36,138,-2492,-132,-7804,0
80,-468,8761,-620,73,128,-2556,-61,-7830,0
-670,75,8159,160,56,96,-2538,-75,-7739,0
-356,-169,7415,1210,25,94,-2560,-25,-7846,0
-171,-821,9115,-97,107,155,-2569,37,-7835,0
704,-724,7977,-103,151,176,-2540,0,-7865,0
971,-198,8289,-1332,206,151,-2505,71,-7933,0
1008,1652,4885,-522,280,190,-2481,39,-7971,0
1653,-1983,6874,2186,168,141,-2424,83,-7973,0
252,-223,8109,-1706,39,100,-2458,-35,-8000,0
1410,1417,5405,-533,519,210,-2374,-32,-7953,0
-995,-653,7224,2672,-83,138,-2405,-41,-7927,0
-173,-3047,10167,1256,66,46,-2422,-45,-8004,0
-577,-940,7872,1435,68,59,-2417,-37,-7993,0
-738,-3197,9530,1588,-492,93,-2420,-73,-7983,0
73,-205,6053,-509,204,166,-2416,-41,-7972,0
-148,223,7260,2137,-95,82,-2420,-148,-8003,0
-763,-432,7303,-482,73,141,-2419,-67,-8034,0
170,135,7142,96,123,119,-2425,-144,-7947,0
-339,91,6848,833,-33,88,-2466,-82,-8036,0
-484,459,7486,-420,-113,89,-2444,-98,-7972,0
-503,-1044,9892,660,-119,87,-2423,-107,-7983,0
194,414,6527,493,-6,96,-2419,-57,-7955,0
-147,309,7061,513,2,87,-2467,-62,-8004,0
-1145,83,7865,-68,-64,75,-2442,31,-7937,0
612,-490,8647,178,50,169,-2462,69,-7910,0
-582,9,8245,-249,12,76,-2433,102,-7974,0
-610,876,7569,-473,325,142,-2411,145,-8003,0
-287,392,7456,1682,-228,145,-2375,108,-7942,0
1848,-32,8253,-2531,761,308,-2356,106,-7979,0
-663,3320,6123,-668,136,336,-2294,18,-8011,0
-540,512,5986,749,-62,112,-2246,-33,-8047,0
27,176,6836,-547,77,119,-2264,-69,-7939,0
-602,444,8071,-38,65,97,-2288,-55,-7985,0
-365,674,7338,644,-108,90,-2334,-117,-7960,0
222,-825,8498,655,30,73,-2364,-109,-7989,0
-345,-91,9002,403,-7,79,-2370,-80,-8007,0
343,129,8182,-1199,50,105,-2390,-128,-7971,0
-1364,-54,8818,-154,41,60,-2400,-107,-7954,0
423,862,9587,-853,181,22,-2412,-157,-7961,0
-1142,188,9377,1608,-283,110,-2342,-94,-8029,0
-434,-1057,9747,338,-33,35,-2407,-151,-7943,0
-3,-1990,10337,813,-108,27,-2385,-105,-7943,0
-858,-973,10007,318,-66,48,-2455,-51,-7922,0
407,106,8610,-961,157,112,-2417,-44,-7946,0
668,33,8265,-498,127,116,-2426,-38,-8002,0
158,179,7008,-185,36,97,-2436,-39,-7919,0
307,-709,6741,767,12,96,-2432,-2,-7880,0
48,-3399,6654,1371,-249,83,-2416,-21,-7902,0
-285,536,6664,-80,134,143,-2369,-29,-7919,0
438,-1609,7265,1778,234,27,-2404,-73,-7898,0
-643,177,7861,1903,-113,118,-2397,-68,-7894,0
-264,288,7822,-1772,235,188,-2393,-79,-7890,0
-166,-822,8576,357,60,108,-2403,-97,-7898,0
-249,-1048,8405,-325,-9,77,-2379,14,-7782,0
203,184,8314,-900,33,142,-2355,3,-7849,0
-171,-2257,10305,599,-77,104,-2388,61,-7854,0
405,-377,7827,-158,90,111,-2355,13,-7852,0
-143,58,9074,-29,75,114,-2291,-1,-7969,0
-158,-1392,8502,422,33,99,-2205,-223,-7838,0
766,-456,7915,-375,115,124,-2270,-350,-7697,0
-15,-334,8091,342,116,140,-2571,107,-7417,0
428,30,7645,18,69,111,-2753,353,-7447,0
587,1689,8546,-272,103,124,-2649,498,-7497,0
-164,211,6972,-634,69,164,-2463,437,-7661,0
191,-281,8158,418,-5,98,-2183,436,-7740,0
125,-436,8572,-323,48,132,-2036,416,-7716,0
-190,172,8334,687,-78,111,-1951,352,-7979,0
-291,-421,9378,501,56,79,-1909,239,-8036,0
-506,148,7621,21,44,94,-1926,175,-8064,0
171,-10,7066,656,75,84,-1825,81,-8146,0
-432,-68,9062,147,-72,80,-1846,-389,-8331,0
-98,-99,8169,259,23,82,-1914,-552,-8205,0
-538,-34,7355,134,-83,75,-2114,-578,-8081,0
-1406,1067,8230,-499,98,59,-2206,-587,-8102,0
-422,154,9833,1610,-382,58,-2307,-529,-7952,0
-586,993,8745,-681,50,76,-2417,-523,-7910,0
448,1089,7820,-42,49,96,-2383,-379,-7794,0
-317,-1343,11617,334,-176,3,-2333,-328,-7921,0
-418,1084,7007,-429,179,56,-2193,-274,-7999,0
-114,707,6481,24,130,83,-2224,-233,-7919,0
-109,79,8797,-185,87,68,-2274,-91,-7943,0
-753,1433,7484,-156,-5,36,-2211,-279,-8092,0
116,258,6812,1028,-158,58,-2082,-502,-7960,0
408,113,8924,398,180,84,-2035,-367,-7593,0
-267,2,8363,215,67,50,-1976,55,-7466,0
-832,-183,8604,78,-59,28,-1920,115,-7621,0
-490,223,7814,-444,49,94,-1978,-5,-7786,0
142,1822,6764,-125,102,115,-2033,-306,-7856,0
-271,-124,9391,-203,49,37,-2246,-210,-7695,0
60,-112,9325,-611,100,114,-2423,77,-7597,0
-363,493,7695,-337,44,88,-2285,137,-7739,0
-374,-1649,8611,485,-110,31,-2249,-51,-7942,0
2,61,7716,-1070,115,124,-2322,-140,-8013,0
-21,101,8628,-108,13,82,-2442,-115,-7897,0
-859,122,7646,260,-19,80,-2485,-163,-7944,0
-75,464,6730,-312,2,124,-2421,-103,-7879,0
84,119,7681,-303,31,120,-2451,-101,-7962,0
-688,122,7379,-95,44,79,-2423,-132,-7914,0
-171,325,6726,384,62,121,-2463,-187,-7802,0
93,129,7115,971,163,103,-2493,-187,-7898,0
-593,1636,6252,-238,107,133,-2492,-180,-7865,0
923,-1636,8005,1233,243,114,-2497,-173,-7898,0
19,-456,8062,454,50,90,-2485,-113,-7886,0
193,-188,8041,-329,114,132,-2514,-160,-7810,0
478,437,7733,1056,-105,111,-2481,-85,-7942,0
-2,-1164,9965,326,16,38,-2515,-23,-7908,0
145,603,7782,142,32,105,-2520,-72,-7921,0
446,1272,7544,672,-147,101,-2470,-127,-7914,0
451,-1599,7935,928,38,52,-2506,-142,-7905,0
-256,-546,8362,430,-61,84,-2496,-110,-7951,0
-101,114,8327,-1574,125,134,-2504,-168,-7831,0
17,1302,9420,-145,-16,87,-2484,-167,-7902,0
-499,-27,10191,770,-119,38,-2481,-132,-7867,0
-40,374,8481,1034,-167,102,-2474,-187,-7854,0
-70,258,8639,79,43,117,-2521,-108,-7848,0
-251,1462,7003,-147,-12,68,-2451,-68,-7833,0
-77,-217,8119,487,151,136,-2455,-101,-7887,0
-1352,-364,8909,1631,164,1,-2432,-100,-7876,0
-848,-855,9337,857,-11,16,-2477,-138,-7904,0
18,56,6430,291,44,99,-2464,-87,-7900,0
394,-136,8741,-887,160,102,-2480,-86,-7818,0
-706,67,8174,-96,14,86,-2487,-146,-7867,0
-417,-444,8907,476,53,64,-2446,-110,-7860,0
-546,249,4670,632,-59,83,-2416,-133,-7855,0
-979,-265,8339,-138,-49,29,-2452,-67,-7842,0
39,3242,5915,-855,266,215,-2415,-66,-7822,0
401,-1800,9498,620,-85,0,-2449,-97,-7906,0
392,-108,7714,-63,39,144,-2449,-83,-7936,0
-297,-1154,10035,-68,-59,69,-2485,-155,-7832,0
-384,-548,8760,-150,34,72,-2477,-66,-7910,0
-789,-325,8147,139,-12,38,-2442,-84,-7900,0
117,63,8693,-534,74,81,-2494,-110,-7912,0
812,178,7372,708,184,110,-2466,-107,-7921,0
-1121,856,5300,-2006,113,96,-2491,-140,-7924,0
-1681,1123,9098,-1836,-23,224,-2476,-171,-7942,0
-1361,1973,7168,644,-170,11,-2457,-173,-7843,0
-510,-309,9804,350,43,75,-2477,-188,-7989,0
-516,-302,7748,-236,-36,91,-2507,-134,-7901,0
178,341,8083,-175,145,73,-2514,-112,-7854,0
-385,370,7819,-623,-63,114,-2559,-108,-7867,0
2188,2907,6756,-1481,653,234,-2601,-117,-7850,0
131,1341,8161,178,-37,89,-2606,-260,-7862,0
380,1809,7730,630,-98,76,-2432,-356,-7837,0
-283,-126,8346,1064,-90,114,-2347,-161,-7934,0
-601,-142,7916,633,156,118,-2381,-78,-7917,0
0,-317,7750,705,142,156,-2385,-60,-7964,0
92,-396,9347,663,85,110,-2465,17,-7814,0
-530,-285,9958,549,84,109,-2668,149,-7737,0
114,-313,7703,1021,193,131,-2612,-89,-7728,0
-233,-267,7847,402,114,100,-2515,-128,-7803,0
146,-162,6957,614,131,126,-2506,-70,-7879,0
-257,-54,7396,-1452,79,198,-2524,-41,-7827,0
988,1739,6925,-847,314,105,-2456,-29,-7880,0
8,-21,8802,540,-49,110,-2492,-29,-7869,0
732,-446,9974,714,210,195,-2458,-50,-7796,0
-248,-262,7563,830,178,185,-2460,-58,-7861,0
816,-307,7282,1029,326,217,-2451,-39,-7836,0
500,-339,8497,-655,145,149,-2493,-84,-7817,0
89,-239,8851,-202,60,135,-2492,-21,-7837,0
254,213,7911,-73,70,122,-2502,18,-7848,0
51,677,7354,-316,150,168,-2487,-53,-7845,0
-325,-93,7272,228,-6,100,-2515,-27,-7859,0
151,754,6555,-90,52,94,-2471,-69,-7823,0
698,840,7759,63,111,115,-2458,-57,-7845,0
-226,563,9200,241,5,89,-2446,-42,-7918,0
-58,1517,7502,-15,38,79,-2448,-102,-7832,0
22,381,7468,-256,141,134,-2417,-69,-7830,0
331,-110,8420,331,43,121,-2398,-67,-7908,0
-127,172,7133,331,-18,96,-2431,-90,-7899,0
34,967,9048,-345,171,85,-2416,-58,-7847,0
-242,26,8823,454,-60,99,-2424,-61,-7922,0
-200,594,9026,-756,251,86,-2476,-84,-7962,0
-449,511,7224,248,-8,77,-2450,-100,-7909,0
-3,-80,8018,-176,-84,55,-2432,-122,-7851,0
-476,-123,7926,-755,-99,77,-2446,-126,-7939,0
-675,1205,7306,-1073,214,68,-2453,-105,-7887,0
334,1506,7730,-618,198,93,-2463,-148,-7810,0
24,1388,8200,-694,242,91,-2494,-65,-7886,0
-223,772,7549,104,35,113,-2510,-70,-7883,0
-170,431,7312,-199,99,114,-2518,-117,-7916,0
-1743,677,8433,-1211,-54,-15,-2474,-105,-7865,0
1152,2118,7425,-860,306,134,-2505,-127,-7818,0
-441,1015,8780,306,3,78,-2479,-123,-7889,0
-574,970,7304,-247,48,66,-2466,-85,-7784,0
17,342,7482,334,14,113,-2467,-143,-7851,0
-398,-8,7825,598,-40,103,-2455,-106,-7866,0
448,1294,7838,75,84,90,-2413,-100,-7826,0
-834,293,7529,1166,-268,26,-2439,-110,-7865,0
-404,258,8015,517,-56,63,-2411,-101,-7904,0
-599,256,8054,96,14,80,-2460,-77,-7820,0
118,792,6905,-70,122,96,-2477,-88,-7919,0
-228,-70,7688,518,-43,83,-2448,-82,-7924,0
321,1406,7672,-851,245,98,-2431,-142,-7838,0
95,940,8376,836,-24,111,-2434,-95,-7812,0
-386,686,8591,-235,94,35,-2377,-91,-7826,0
-1373,-95,8238,1537,-389,52,-2371,-127,-7816,0
-722,-306,9092,-84,-40,51,-2354,-130,-7940,0
-311,1090,6295,-884,291,69,-2357,-175,-7907,0
-211,443,7838,105,129,104,-2366,-157,-7859,0
-74,1122,7437,-678,280,93,-2386,-97,-7815,0
635,862,6677,560,15,58,-2420,-66,-7768,0
-27,1163,7459,126,9,79,-2416,-82,-7828,0
-283,-229,8638,738,102,76,-2400,-116,-7782,0
-71,744,8553,-142,146,69,-2431,-170,-7823,0
-119,699,7345,-597,315,51,-2416,-116,-7831,0
96,135,8389,343,66,52,-2444,-101,-7752,0
82,1002,7614,-415,231,83,-2434,-136,-7820,0
-118,1389,7746,-55,37,14,-2461,-127,-7814,0
-544,-193,9020,709,-59,1,-2422,-182,-7809,0
-268,315,7597,165,90,49,-2449,-138,-7827,0
55,134,8427,179,133,55,-2446,-164,-7806,0
358,454,8187,131,87,96,-2452,-111,-7802,0
-711,201,8023,193,41,53,-2409,-142,-7805,0
-9,-197,7467,212,71,95,-2451,-171,-7765,0
-517,-371,8211,-399,-53,11,-2447,-86,-7810,0
-805,1182,7714,345,-115,7,-2389,-132,-7846,0
-152,-162,7091,1097,2,59,-2399,-169,-7842,0
-625,-580,8564,541,128,56,-2423,-167,-7905,0
-189,-600,9729,643,124,36,-2440,-157,-7875,0
-439,-268,7910,300,-44,92,-2449,-140,-7886,0
-328,143,7564,780,-133,38,-2405,-111,-7869,0
-110,-463,7416,-230,-47,49,-2438,-236,-7854,0
-367,1657,7149,-213,118,61,-2425,-166,-7877,0
-73,705,7322,834,-78,60,-2382,-188,-7843,0
-935,-199,8067,467,-117,5,-2449,-204,-7914,0
-528,733,7940,-539,81,84,-2420,-152,-7892,0
-328,1469,7330,-430,76,75,-2394,-226,-7834,0
-638,383,7088,763,-151,94,-2429,-199,-7879,0
-187,-437,9151,129,124,93,-2439,-153,-7879,0
-7,-203,8160,-613,15,79,-2464,-189,-7863,0
72,857,7691,-385,314,178,-2410,-160,-7850,0
-304,686,6939,-1,84,119,-2428,-168,-7819,0
-486,443,8445,331,-57,87,-2452,-139,-7883,0
-355,386,8715,-182,50,44,-2442,-186,-7944,0
323,1101,7034,-735,320,99,-2423,-267,-7966,0
389,2475,7721,-538,187,42,-2429,-198,-7927,0
-936,528,8555,1028,-202,26,-2410,-287,-7896,0
-436,521,7989,379,-7,45,-2413,-257,-7881,0
1001,1128,7711,115,-24,116,-2331,-267,-7753,0
-1553,-14,8496,1165,-26,-16,-2383,-53,-7701,0
-78,-967,9380,293,18,28,-2369,1,-7902,0
194,-107,7094,-434,200,76,-2397,-249,-7939,0
727,198,10072,673,94,168,-2364,-250,-7995,0
481,-1084,9961,1144,219,179,-2409,-247,-7844,0
-26,-334,7238,-53,-28,100,-2452,-123,-7729,0
149,-237,8948,895,-110,91,-2453,-67,-7835,0
-743,-24,8612,876,-167,44,-2435,-189,-7848,0
-462,-585,8443,590,-17,62,-2394,-207,-7972,0
126,-360,9614,128,7,114,-2375,-210,-7913,0
-127,-117,7711,784,-43,129,-2435,-210,-7916,0
-647,-70,7295,-185,-21,92,-2398,-180,-7922,0
-566,693,8275,365,81,146,-2394,-210,-7846,0
332,-164,9506,292,55,63,-2422,-163,-7957,0
-182,-439,7704,96,-55,26,-2409,-231,-7896,0
25,-13,6908,-1134,16,140,-2375,-240,-7913,0
136,-1353,8845,509,48,96,-2442,-152,-7923,0
58,-205,8832,97,53,124,-2372,-201,-7891,0
-51,252,7104,333,76,141,-2358,-104,-7966,0
81,-80,7193,208,110,107,-2370,-89,-8083,0
980,243,7206,-28,156,115,-2313,-306,-8249,0
-316,-89,6844,400,189,138,-2355,-417,-8167,0
51,-1820,9879,592,-13,91,-2353,-361,-8011,0
-1172,831,8239,-135,-55,123,-2396,-244,-7942,0
-497,-108,6447,400,56,101,-2443,-190,-7919,0
-56,-456,7552,505,49,120,-2395,-212,-7979,0
-14,-372,7363,75,128,71,-2364,-156,-8038,0
-309,-241,7174,38,7,43,-2415,-316,-8043,0
-473,-241,8625,-857,71,80,-2402,-256,-8002,0
-1417,1332,8794,-1359,445,-8,-2456,-183,-7982,0
-233,-338,8576,582,37,56,-2461,-232,-8005,0
-109,-185,9606,-59,9,38,-2382,-136,-8017,0
140,33,7402,84,109,91,-2350,-239,-8026,0
106,953,7626,499,34,64,-2354,-306,-8054,0
51,343,8405,411,109,91,-2315,-298,-7969,0
-203,553,8286,888,3,128,-2293,-301,-8019,0
-708,-60,7602,737,93,96,-2301,-254,-8049,0
-6,183,8283,171,180,127,-2329,-243,-7998,0
-296,-102,7631,326,182,97,-2271,-330,-8100,0
209,54,7822,396,98,124,-2285,-325,-8074,0
-635,-33,6921,194,20,42,-2294,-291,-7959,0
206,-8,8313,559,57,89,-2335,-210,-8000,0
152,582,8488,115,68,125,-2311,-305,-7992,0
352,-210,8638,594,154,115,-2359,-265,-8030,0
941,-137,8587,-93,134,104,-2281,-311,-8028,0
523,-244,8661,-884,68,108,-2321,-396,-8040,0
351,314,8283,-286,79,115,-2395,-229,-7880,0
902,147,7730,656,145,203,-2396,-111,-7786,0
528,-353,9510,-161,69,214,-2372,-176,-7912,0
1648,866,7967,-916,420,167,-2371,-82,-7895,0
716,346,8156,165,51,207,-2276,-249,-7989,0
548,277,7758,488,37,240,-2280,-222,-7950,0
551,-465,8541,281,218,146,-2305,-279,-7837,0
1321,-1404,9500,327,193,169,-2340,-215,-7799,0
1107,-4,6666,-848,241,235,-2406,58,-7711,0
126,177,7597,-243,38,172,-2450,115,-7805,0
1178,-467,8642,-421,167,202,-2395,120,-7912,0
825,-145,8322,-702,94,134,-2369,-146,-7901,0
763,-346,8369,-578,150,101,-2383,-168,-7891,0
385,-144,8449,425,-108,71,-2401,-84,-7793,0
822,-466,8879,-111,53,97,-2418,-100,-7948,0
165,-840,8828,705,-220,77,-2391,-226,-7957,0
60,-29,6746,-6,-65,113,-2391,-209,-7868,0
845,-1548,9308,512,6,130,-2406,-93,-7950,0
1435,-1240,8164,-149,197,178,-2334,-186,-8033,0
292,78,7186,-829,-20,158,-2318,-280,-8057,0
319,-1485,8876,408,-67,109,-2312,-315,-8088,0
619,-940,8356,-12,3,166,-2319,-307,-7956,0
643,-441,8303,-361,64,167,-2408,-163,-7822,0
176,-1074,7862,105,-19,146,-2404,9,-7800,0
554,-315,7933,-216,45,166,-2366,-58,-7942,0
213,-561,8445,-46,24,150,-2373,-164,-8060,0
520,-902,9482,345,75,158,-2378,-151,-7998,0
323,-1241,8874,436,0,168,-2398,-144,-7878,0
143,-752,8306,-506,105,150,-2428,-81,-7984,0
664,2177,6387,-202,101,175,-2355,-60,-7965,0
842,-197,7524,-615,144,211,-2385,-164,-7894,0
-360,1331,8176,-960,130,78,-2397,-82,-7954,0
1070,-10,8170,-616,102,167,-2373,-156,-7909,0
603,162,8890,-148,-58,167,-2412,-194,-7896,0
454,-245,7980,-283,21,117,-2404,-85,-7884,0
684,-112,7738,925,134,149,-2403,-51,-7887,0
532,-2591,8805,428,-138,78,-2450,-113,-7939,0
24,-205,8007,292,-31,104,-2406,-103,-7902,0
544,29,9083,683,-52,126,-2371,-135,-7900,0
74,-12,7335,109,-72,84,-2398,-176,-7954,0
741,-425,6999,593,52,100,-2412,-151,-7912,0
476,-484,8363,224,22,69,-2381,-205,-7927,0
592,-1219,9488,1129,28,80,-2423,-197,-7925,0
-181,-1802,10101,566,-163,88,-2336,-179,-7900,0
446,20,7181,-480,4,91,-2344,-164,-7797,0
-49,86,7469,-308,-63,70,-2322,-110,-7886,0
152,168,7515,-125,-15,71,-2310,-115,-7942,0
556,-13,8368,-292,81,95,-2360,-166,-7967,0
110,843,7343,-170,84,110,-2333,-152,-7905,0
409,242,7573,-333,6,60,-2333,-229,-7991,0
484,469,8428,-406,91,83,-2336,-317,-8034,0
913,371,7128,-237,188,117,-2249,-305,-8025,0
128,305,8001,-308,97,78,-2152,-344,-7953,0
490,-8,7826,-120,32,108,-2076,-325,-7932,0
298,103,7131,-324,50,135,-2076,-93,-7977,0
666,99,7688,131,101,135,-2189,22,-7984,0
1005,2,7501,890,161,160,-2311,-111,-8033,0
357,-283,7697,630,131,137,-2321,-133,-7961,0
890,-288,9345,471,98,119,-2297,-26,-7793,0
526,-25,7874,886,39,115,-2417,0,-7662,0
603,-66,8164,232,25,100,-2434,-44,-7627,0
922,162,7990,4,21,110,-2310,-91,-7659,0
466,-87,8288,-311,-86,75,-2269,33,-7627,0
-16,88,7810,-407,-64,92,-2327,168,-7703,0
29,-48,8317,-258,-51,72,-2343,247,-7707,0
461,-50,7729,-98,-49,73,-2454,155,-7654,0
639,128,7337,-72,27,105,-2560,166,-7785,0
150,-149,7578,58,2,90,-2468,176,-7784,0
743,531,8252,-262,116,77,-2473,182,-7742,0
401,89,8948,958,-22,123,-2654,225,-7692,0
299,-153,8097,875,21,91,-2698,143,-7694,0
189,-1034,8254,546,-25,74,-2697,8,-7703,0
735,-127,7466,-317,97,124,-2706,-90,-7855,0
395,-942,9313,-7,66,120,-2559,-221,-7867,0
254,-1779,9192,741,-11,89,-2513,-252,-7886,0
525,-528,8060,529,75,129,-2439,-251,-7883,0
294,-240,7751,-225,99,165,-2374,-190,-7922,0
617,-183,6684,-138,33,146,-2421,-125,-7923,0
221,-499,6282,374,30,123,-2422,-112,-7918,0
228,-169,8057,34,102,148,-2414,-31,-7918,0
523,-96,9005,-49,59,130,-2484,-21,-7922,0
174,-646,8544,130,8,110,-2455,-99,-7964,0
276,-460,7836,-177,61,123,-2433,-84,-7964,0
687,-951,7405,-66,91,145,-2482,-42,-7946,0
552,-847,8489,-313,66,123,-2451,-29,-7890,0
337,-1116,7883,195,13,138,-2486,-44,-7937,0
-162,-1109,7774,137,-40,91,-2482,-48,-7954,0
470,-56,8369,-474,40,90,-2502,-97,-7917,0
28,-249,7108,-677,136,125,-2452,-119,-7884,0
654,-2034,9069,393,23,78,-2502,-96,-7967,0
39,-396,8628,544,-27,77,-2506,-111,-7905,0
291,-245,8184,166,15,131,-2439,-156,-7903,0
358,-822,7749,-178,8,114,-2438,-196,-7812,0
301,-1174,8180,211,-16,129,-2447,-213,-7848,0
430,-939,7278,698,38,100,-2398,-184,-7900,0
-553,513,8287,-634,-74,116,-2329,-114,-7833,0
1155,-344,7891,1408,205,172,-2320,-127,-7936,0
373,-1478,8866,695,-35,128,-2352,-45,-7920,0
630,-650,7850,237,16,132,-2352,28,-7871,0
1098,-916,8833,484,45,154,-2382,91,-7799,0
333,-599,8037,136,40,131,-2424,13,-7761,0
329,-648,7617,147,54,137,-2445,122,-7819,0
432,-933,8115,-5,56,131,-2459,149,-7780,0
556,-1062,7941,4,21,139,-2437,240,-7744,0
598,-1385,9116,302,9,153,-2484,328,-7731,0
300,-2349,9502,1109,-99,134,-2552,323,-7820,0
754,-284,7998,483,183,391,-2581,353,-7873,0
1265,-599,7865,81,93,214,-2647,297,-7915,0
1259,-515,7734,130,124,257,-2654,148,-7999,0
1101,-485,7551,111,78,274,-2619,-31,-7998,0
913,-770,7506,257,39,305,-2657,-105,-8186,0
1004,-1015,7229,246,98,347,-2559,-225,-8168,0
1517,-414,7651,446,163,389,-2518,-285,-8129,0
1157,-892,8599,297,129,434,-2460,-288,-7963,0
1275,-1327,8229,476,90,432,-2427,-265,-7887,0
1222,-1248,7698,643,-8,459,-2421,-153,-7793,0
1669,-244,7310,137,119,499,-2443,30,-7639,0
1221,175,6724,-27,93,517,-2463,193,-7596,0
1076,19,7460,-1026,240,539,-2505,369,-7560,0
1109,-976,8609,-227,32,507,-2527,481,-7655,0
1222,-522,8297,-37,57,495,-2542,418,-7752,0
955,-565,7893,-169,61,490,-2547,441,-7790,0
708,-295,7723,182,-25,450,-2538,461,-7804,0
711,265,7455,432,-88,433,-2573,490,-7861,0
703,222,8139,606,-51,388,-2583,547,-7779,0
402,136,7690,412,-55,344,-2601,572,-7805,0
206,102,8272,-396,-93,290,-2632,567,-7879,0
388,-626,7993,691,-106,226,-2619,624,-7893,0
-125,-1909,9106,1120,-277,123,-2595,624,-7942,0
-149,782,7284,589,-183,147,-2609,589,-7981,0
-140,-321,7715,265,-99,91,-2581,486,-7996,0
-211,1262,8399,-595,10,39,-2608,362,-7992,0
-454,-139,8646,986,-130,-44,-2648,331,-7999,0
-795,1005,7803,-344,-32,-76,-2615,385,-7894,0
-771,255,8131,418,-129,-126,-2664,407,-7875,0
-334,677,7892,-162,-8,-167,-2644,458,-7819,0
-722,457,7875,48,-25,-191,-2666,396,-7838,0
-298,732,7196,407,-53,-208,-2645,314,-7819,0
-348,287,8217,289,-9,-201,-2614,330,-7774,0
-568,-133,8249,468,-16,-230,-2538,290,-7741,0
-568,-166,8396,184,-71,-235,-2535,369,-7757,0
-285,499,7691,246,-32,-214,-2618,496,-7707,0
-329,71,8168,150,-5,-213,-2661,431,-7706,0
-810,228,8533,-591,-36,-212,-2671,398,-7782,0
352,117,8359,189,73,-151,-2716,334,-7843,0
-316,-46,8765,496,56,-178,-2738,335,-7763,0
-3,-32,8278,118,77,-160,-2840,327,-7763,0
-419,466,7942,-301,25,-154,-2877,268,-7737,0
-264,87,7566,180,5,-135,-2920,271,-7812,0
43,-1281,7892,94,51,-123,-2952,277,-7824,0
37,926,7858,169,27,-113,-2911,212,-7801,0
-12,235,7984,674,-32,-74,-2926,135,-7751,0
-184,88,7986,19,57,-86,-2866,12,-7722,0
-161,-287,7452,164,11,-92,-2855,20,-7815,0
405,-506,7492,924,11,-96,-2812,110,-7825,0
119,-1237,8654,-604,147,-50,-2831,105,-7979,0
138,249,8036,176,47,-52,-2751,-2,-7958,0
99,-209,8293,128,104,-21,-2723,-161,-7934,0
6,46,7750,112,109,-6,-2648,-253,-7969,0
77,-786,7604,-47,83,22,-2628,-112,-7876,0
165,-597,7958,-76,92,48,-2656,-73,-7863,0
172,-862,8297,73,75,52,-2607,-115,-7778,0
321,-1172,8289,459,45,79,-2599,-127,-7737,0
156,-1095,8528,168,57,74,-2582,-99,-7660,0
87,-891,7990,20,33,60,-2471,-170,-7812,0
-182,-1477,8328,401,-52,53,-2400,-134,-7899,0
-249,-1604,9098,273,-74,26,-2382,-105,-7998,0
-60,-713,8223,-37,-13,5,-2460,-85,-7953,0
79,-493,8063,41,3,11,-2483,-4,-7856,0
47,-527,8020,-331,35,12,-2577,48,-7828,0
129,-1120,8277,37,1,-12,-2672,-13,-7717,0
269,-192,7595,-320,113,27,-2637,-111,-7810,0
165,-739,8655,-251,97,24,-2588,-57,-7834,0
195,-1442,9004,44,129,43,-2581,-17,-7852,0
805,-1257,7759,1398,-41,40,-2513,51,-7891,0
338,139,7895,332,56,53,-2506,15,-8002,0
445,-82,8097,28,93,87,-2509,30,-7995,0
203,-768,8008,487,21,80,-2494,61,-8065,0
258,40,8131,124,37,89,-2554,89,-7978,0
277,116,8025,16,39,98,-2625,68,-7998,0
256,3,8005,-1,68,108,-2702,140,-8016,0
453,-282,8234,505,58,102,-2742,129,-7869,0
218,-104,8016,427,35,107,-2748,136,-7930,0
534,155,7855,162,29,95,-2765,104,-7908,0
150,124,7864,290,29,106,-2806,51,-7969,0
328,87,7777,96,12,86,-2829,-8,-7980,0
406,137,8071,-2,-1,85,-2937,38,-7970,0
240,215,8320,90,-17,99,-3027,-88,-7962,0
186,-7,8372,100,-8,101,-3057,-91,-7989,0
231,-160,8188,193,22,99,-3125,-61,-7986,0
89,-4,8479,199,10,85,-3184,-221,-8005,0
164,4,8121,4,38,84,-3050,-379,-7973,0
222,19,7742,189,70,88,-2895,-414,-7985,0
238,41,8017,11,74,83,-2728,-337,-7918,0
268,-33,8186,329,66,90,-2668,-118,-7810,0
318,89,8088,46,60,89,-2735,-17,-7855,0
411,194,7870,287,60,87,-2822,29,-7905,0
317,-190,7879,539,55,92,-2944,55,-8013,0
376,-270,8415,-24,69,100,-2949,-27,-8047,0
349,-130,8212,127,49,93,-2916,-187,-8009,0
172,82,8070,207,58,101,-2823,-212,-8147,0
331,86,8000,262,59,100,-2778,-228,-8138,0
556,-373,7597,507,80,100,-2727,-249,-8168,0
98,-614,7918,-225,89,105,-2682,-259,-8116,0
211,-823,8113,288,23,110,-2598,-242,-8003,0
260,-204,8263,138,17,114,-2518,-231,-7891,0
346,30,8055,-409,62,121,-2546,-156,-7937,0
158,-1051,8939,218,-35,90,-2543,-43,-7936,0
133,-366,8660,-18,-11,87,-2501,20,-7949,0
410,-1286,8419,1013,2,109,-2528,45,-7821,0
42,-1138,8601,482,-21,73,-2561,108,-7823,0
116,-753,7820,151,27,92,-2578,155,-7785,0
455,-821,8160,-84,91,104,-2640,82,-7755,0
304,-1095,8200,576,29,92,-2593,98,-7789,0
216,-1291,8432,403,49,104,-2565,108,-7720,0
389,-1278,8403,374,47,105,-2558,164,-7744,0
252,-1286,8196,279,33,101,-2655,176,-7816,0
294,-1071,7826,197,43,114,-2816,197,-7928,0
283,-656,7826,64,50,120,-2893,229,-7900,0
344,-1066,7933,174,56,126,-2996,187,-7895,0
245,-1134,8214,190,42,118,-3028,108,-7906,0
313,-633,7888,11,42,110,-3018,40,-7943,0
227,-807,7919,120,32,114,-3017,-51,-7970,0
265,-1053,7984,139,20,98,-3000,-98,-7936,0
394,-1073,8157,198,34,98,-2958,-166,-7893,0
254,-810,7837,75,52,105,-2922,-212,-7848,0
259,-894,8078,166,34,110,-2856,-187,-7880,0
320,-1075,8127,241,30,119,-2832,-172,-7811,0
181,-976,8115,175,30,101,-2772,-140,-7818,0
268,-860,7965,110,38,103,-2756,-121,-7830,0
241,-953,8109,172,30,103,-2766,-87,-7822,0
143,-913,7817,170,18,90,-2777,-65,-7816,0
278,-890,7793,72,30,103,-2813,-104,-7788,0
307,-959,8110,133,17,94,-2817,-83,-7816,0
161,-812,8147,155,24,95,-2824,-88,-7806,0
192,-654,7813,84,27,101,-2849,-58,-7757,0
395,-698,8136,101,41,86,-2858,-63,-7777,0
183,-636,8130,152,40,98,-2855,-57,-7719,0
232,-577,7858,84,33,92,-2798,-75,-7804,0
372,-695,8284,125,42,97,-2852,-82,-7781,0
248,69,8199,-43,37,95,-2866,-87,-7769,0
276,557,8137,-65,74,93,-2843,-84,-7748,0
225,173,7718,230,27,95,-2841,-85,-7774,0
395,-84,7729,206,49,95,-2832,-105,-7782,0
253,118,7972,37,40,93,-2855,-101,-7800,0
322,321,8313,63,49,93,-2867,-91,-7749,0
310,115,8109,287,42,88,-2856,-103,-7775,0
246,-169,7981,224,21,90,-2824,-83,-7786,0
278,118,8110,47,33,93,-2871,-55,-7745,0
272,284,7832,55,28,88,-2853,-66,-7774,0
293,143,7924,146,29,93,-2825,-87,-7757,0
290,49,8002,71,31,96,-2812,-58,-7778,0
267,117,8080,87,19,100,-2839,-52,-7793,0
320,133,8052,67,38,105,-2833,-55,-7767,0
303,77,8200,119,42,94,-2874,-60,-7806,0
292,140,7969,86,39,90,-2857,-62,-7816,0
290,198,7984,111,54,95,-2841,-36,-7756,0
294,148,8120,101,46,98,-2832,-53,-7797,0
281,99,7888,139,45,92,-2841,-76,-7811,0
288,73,8182,134,41,84,-2822,-72,-7795,0
344,71,7886,146,39,92,-2807,-50,-7848,0
306,100,8085,71,25,93,-2842,-72,-7828,0
309,108,8078,96,40,90,-2799,-31,-7711,0
256,123,8129,116,31,95,-2832,-59,-7751,0
299,68,7971,152,21,96,-2812,-31,-7760,0
320,85,8048,98,28,91,-2816,-45,-7808,0
389,148,8047,106,34,93,-2810,-51,-7722,0
398,198,7859,34,55,96,-2844,-88,-7761,0
303,173,7946,211,13,101,-2828,-83,-7752,0
210,61,8012,222,23,95,-2832,-62,-7752,0
256,59,8033,78,13,96,-2835,-79,-7772,0
360,189,7895,39,33,97,-2817,-41,-7740,0
297,207,7882,139,22,99,-2834,-49,-7766,0
247,90,8023,181,10,94,-2785,-72,-7718,0
289,68,8119,107,16,88,-2841,-54,-7698,0
360,170,7928,76,38,101,-2828,-75,-7809,0
220,150,8033,150,6,89,-2806,-91,-7789,0
244,72,7866,113,4,97,-2829,-67,-7758,0
293,88,8074,126,17,94,-2818,-75,-7769,0
219,164,8046,86,30,97,-2864,-51,-7775,0
181,134,8093,146,20,97,-2831,-41,-7766,0
211,133,8094,63,49,96,-2807,-50,-7766,0
219,103,8025,151,47,97,-2845,-72,-7746,0
219,205,7913,63,52,96,-2843,-11,-7660,0
157,203,7830,139,34,91,-2817,-40,-7712,0
305,72,8042,107,54,91,-2824,-29,-7744,0
256,98,8027,154,38,85,-2826,-65,-7752,0
246,65,8003,100,24,93,-2830,-45,-7727,0
282,157,8112,75,14,89,-2825,-51,-7707,0
219,156,7949,108,16,96,-2826,-67,-7783,0
192,114,8114,139,10,97,-2848,-76,-7734,0
189,31,8053,171,2,98,-2811,-69,-7816,0
222,-103,8171,56,12,100,-2843,-52,-7797,0
207,43,7992,-44,7,92,-2860,-43,-7692,0
129,247,8118,-43,19,89,-2828,-74,-7774,0
163,240,7911,196,33,102,-2866,-9,-7777,0
179,42,7957,190,40,99,-2833,-37,-7727,0
195,51,8066,94,43,90,-2848,-65,-7757,0
166,239,8015,107,44,98,-2835,-52,-7735,0
255,107,8205,92,43,88,-2828,-27,-7713,0
162,89,8025,184,39,99,-2831,-67,-7716,0
202,135,8069,99,40,95,-2826,-46,-7673,0
242,127,7933,152,17,99,-2838,-48,-7708,0
263,140,7982,105,36,95,-2838,-52,-7692,0
151,100,7803,136,29,106,-2801,-42,-7708,0
173,166,8155,79,24,97,-2854,-36,-7726,0
204,131,7946,132,28,100,-2861,-60,-7789,0
224,120,7969,121,38,100,-2837,-44,-7712,0
158,145,8076,114,26,88,-2846,-69,-7722,0
302,48,8079,121,21,96,-2832,-55,-7734,0
144,13,8203,88,37,99,-2815,-103,-7716,0
213,226,7821,24,50,111,-2844,-52,-7714,0
180,184,8194,140,18,100,-2842,-66,-7678,0
257,107,8197,137,41,102,-2857,-79,-7691,0
166,136,7864,124,43,91,-2861,-57,-7684,0
175,150,7904,93,36,93,-2844,-77,-7709,0
257,164,7971,97,27,97,-2869,-43,-7691,0
266,97,8048,135,19,91,-2853,-92,-7656,0
152,144,8343,136,8,93,-2880,-31,-7659,0
155,125,8108,76,3,97,-2884,-80,-7692,0
240,199,8345,102,19,98,-2892,-49,-7650,0
176,102,8041,108,0,86,-2881,-77,-7705,0
191,130,8113,161,17,94,-2887,-25,-7727,0
133,82,8127,86,28,96,-2901,-16,-7634,0
153,139,7980,101,21,93,-2867,-47,-7651,0
144,120,8141,126,35,101,-2889,-86,-7640,0
125,178,7936,104,39,93,-2919,-30,-7683,0
204,78,8262,126,58,97,-2900,-53,-7635,0
114,146,7855,133,60,95,-2904,-55,-7679,0
153,142,7997,122,49,96,-2913,-73,-7641,0
233,113,7689,117,36,96,-2893,-87,-7708,0
181,62,7970,139,37,101,-2856,-46,-7713,0
103,145,8076,126,43,98,-2862,-44,-7670,0
167,162,8038,75,46,89,-2893,-64,-7664,0
158,120,7892,138,44,91,-2901,-88,-7710,0
194,93,7884,152,42,95,-2899,-66,-7705,0
208,126,8053,120,38,91,-2884,-74,-7684,0
220,108,8002,87,37,96,-2906,-105,-7738,0
250,153,7979,128,41,89,-2873,-109,-7708,0
105,104,7923,144,24,99,-2864,-97,-7692,0
161,132,8137,101,30,92,-2855,-83,-7672,0
248,66,8278,128,38,98,-2871,-73,-7713,0
169,205,8050,124,37,98,-2874,-65,-7666,0
120,136,7976,132,36,96,-2914,-94,-7721,0
143,165,7971,266,10,98,-2852,-76,-7713,0
302,-19,8245,340,42,110,-2881,-85,-7640,0
168,1,8081,101,33,92,-2853,-71,-7702,0
152,218,7938,55,43,87,-2864,-85,-7713,0
176,176,8188,100,40,92,-2890,-49,-7680,0
88,106,8086,166,41,96,-2835,-73,-7709,0
159,122,7990,112,63,92,-2840,-41,-7670,0
208,136,7962,104,59,95,-2867,-58,-7726,0
219,141,8121,123,55,105,-2881,-58,-7698,0
186,201,7835,122,40,90,-2872,-68,-7740,0
165,139,7986,91,32,99,-2812,-31,-7725,0
220,128,7947,120,21,90,-2848,-38,-7683,0
189,172,8066,145,36,98,-2841,-45,-7634,0
152,133,8095,104,42,96,-2818,-37,-7709,0
155,134,8035,110,41,91,-2859,-40,-7676,0
256,113,8091,122,31,101,-2869,-34,-7714,0
148,215,8013,119,31,96,-2830,-68,-7667,0
114,172,7732,126,30,101,-2872,-38,-7694,0
162,112,8062,95,44,86,-2834,-56,-7639,0
131,77,8156,132,31,91,-2902,-42,-7610,0
166,162,8042,92,29,97,-2904,-26,-7679,0
157,134,7714,158,22,88,-2874,-53,-7703,0
209,138,8040,104,31,97,-2901,-39,-7610,0
91,103,8065,154,15,90,-2849,-33,-7688,0
123,155,8170,94,39,94,-2871,-73,-7673,0
203,96,7945,124,40,92,-2879,-107,-7676,0
204,133,8093,124,43,96,-2837,-60,-7681,0
159,137,8025,120,38,87,-2796,-51,-7628,0
131,110,8033,96,55,94,-2860,-80,-7649,0
189,110,7953,125,36,98,-2833,-52,-7632,0
208,126,8093,135,33,88,-2881,-57,-7664,0
182,143,8184,105,42,95,-2874,-83,-7735,0
145,100,8015,138,51,95,-2837,-64,-7731,0
124,139,7947,123,53,97,-2852,-66,-7699,0
216,202,8067,109,54,93,-2857,-61,-7711,0
267,123,8132,126,59,97,-2870,-63,-7720,0
240,60,8074,128,44,100,-2879,-66,-7614,0
181,115,8015,129,32,94,-2878,-18,-7706,0
146,188,7488,70,27,102,-2856,-38,-7725,0
231,139,7901,119,26,104,-2859,-56,-7735,0
209,79,7965,151,29,98,-2884,-65,-7675,0
150,133,8030,136,23,98,-2920,-72,-7698,0
205,109,8032,74,34,99,-2911,-36,-7714,0
233,155,8147,114,32,96,-2865,-58,-7701,0
144,132,8129,131,43,94,-2885,-62,-7668,0
63,221,8184,127,55,95,-2861,-77,-7742,0
211,47,7874,138,45,98,-2853,-70,-7727,0
216,184,7905,115,44,99,-2868,-62,-7726,0
247,146,7884,120,35,96,-2889,-72,-7722,0
172,178,8158,105,38,94,-2873,-78,-7722,0
201,78,8246,129,44,95,-2878,-59,-7702,0
194,107,8092,108,38,91,-2856,-50,-7725,0
175,139,7947,134,27,91,-2845,-5,-7707,0
252,117,8050,109,40,100,-2842,-57,-7705,0
120,77,7983,151,32,90,-2857,-64,-7741,0
173,138,7795,91,46,99,-2867,-45,-7684,0
225,139,7900,113,55,93,-2865,-61,-7695,0
296,146,7972,114,58,95,-2869,-30,-7737,0
237,88,7996,113,41,98,-2842,-46,-7703,0
233,120,8022,124,32,96,-2813,-62,-7747,0
255,135,8203,92,31,88,-2859,-2,-7736,0
216,161,8051,145,24,97,-2848,-29,-7666,0
173,78,8046,127,17,98,-2867,-67,-7674,0
179,125,7860,125,5,94,-2857,-64,-7696,0
238,114,8180,119,23,93,-2881,-33,-7687,0
139,212,7889,120,29,102,-2905,-43,-7703,0
176,150,8204,112,34,92,-2909,-62,-7704,0
218,114,8084,121,37,91,-2871,-41,-7676,0
193,72,8192,134,38,93,-2858,-42,-7724,0
162,127,7921,102,43,97,-2841,-87,-7650,0
202,141,8006,111,40,98,-2888,-47,-7679,0
238,122,8129,129,42,90,-2877,-50,-7660,0
207,115,7989,159,35,95,-2876,-90,-7700,0
192,238,7945,67,31,99,-2929,-106,-7670,0
237,177,8058,151,18,95,-2870,-100,-7676,0
218,141,8165,104,32,99,-2877,-66,-7659,0
129,115,8004,161,24,99,-2866,-88,-7647,0
186,175,8104,89,48,97,-2874,-50,-7679,0
245,106,7938,110,51,96,-2848,-70,-7720,0
157,123,7943,143,64,104,-2853,-90,-7649,0
192,140,8138,124,58,95,-2862,-80,-7691,0
219,151,7861,96,62,94,-2861,-61,-7685,0
265,87,8196,127,52,93,-2891,-85,-7742,0
198,157,7893,99,42,85,-2835,-58,-7770,0
245,120,7981,130,29,90,-2864,-66,-7690,0
253,128,7951,130,31,93,-2826,-58,-7735,0
179,69,8057,122,30,93,-2845,-111,-7684,0
220,181,8032,104,31,95,-2832,-65,-7682,0
238,143,8198,114,31,89,-2868,-75,-7723,0
244,131,8057,122,40,99,-2879,-79,-7692,0
176,89,8019,141,33,94,-2846,-106,-7788,0
194,100,7969,82,35,101,-2872,-99,-7732,0
263,125,8176,104,37,99,-2874,-50,-7703,0
212,153,7954,121,35,105,-2877,-59,-7703,0
207,92,7885,147,18,93,-2849,-61,-7665,0
226,105,7928,101,26,94,-2875,-36,-7654,0
250,106,7935,127,29,98,-2869,-37,-7723,0
239,135,8076,129,21,92,-2863,-62,-7694,0
217,151,7851,95,35,93,-2878,-87,-7681,0
222,74,7947,119,42,94,-2904,-38,-7701,0
221,133,8052,111,53,96,-2903,-60,-7690,0
182,136,7842,104,45,95,-2888,-73,-7711,0
194,128,8098,116,39,87,-2878,-72,-7720,0
279,99,7983,114,49,100,-2895,-43,-7689,0
224,110,8035,143,26,88,-2889,-62,-7686,0
234,165,7838,96,19,92,-2857,-92,-7749,0
271,97,8236,137,11,98,-2898,-66,-7689,0
212,143,8238,151,28,94,-2896,-56,-7668,0
181,123,8048,134,34,99,-2851,-43,-7700,0
207,108,8083,55,53,85,-2845,-63,-7706,0
238,141,8189,144,59,97,-2878,-43,-7681,0
227,135,8167,146,55,97,-2863,-38,-7711,0
254,123,8021,122,68,92,-2843,-52,-7707,0
319,48,7913,82,55,101,-2860,-48,-7666,0
217,161,7887,118,54,92,-2903,-64,-7645,0
255,134,8050,129,38,96,-2873,-82,-7676,0
259,131,8021,111,41,99,-2865,-43,-7683,0
263,87,8124,134,42,97,-2860,-102,-7691,0
218,132,7950,124,40,94,-2864,-62,-7709,0
291,154,7950,108,39,95,-2876,-77,-7748,0
334,107,8135,103,38,91,-2889,-59,-7735,0
230,99,8088,146,38,96,-2847,-29,-7676,0
239,130,8052,127,37,96,-2933,-75,-7712,0
265,160,7928,95,39,93,-2866,-76,-7680,0
289,124,8027,122,44,99,-2877,-72,-7685,0
241,80,7962,135,43,91,-2898,-79,-7642,0
253,118,8086,126,46,96,-2859,-80,-7676,0
298,157,8095,81,42,93,-2892,-71,-7661,0
318,129,7983,152,39,93,-2886,-78,-7664,0
259,80,8038,129,35,98,-2867,-54,-7677,0
258,103,8015,131,19,95,-2867,-76,-7725,0
341,124,8155,87,35,98,-2856,-68,-7651,0
232,179,7974,110,31,94,-2884,-67,-7658,0
281,125,8014,133,23,93,-2879,-91,-7643,0
240,111,8175,117,18,94,-2865,-88,-7619,0
259,81,8196,147,12,99,-2860,-53,-7618,0
226,172,8131,92,28,95,-2838,-69,-7713,0
218,123,8069,124,33,91,-2878,-53,-7702,0
253,114,8124,121,56,95,-2848,-101,-7688,0
236,101,8055,156,59,96,-2834,-48,-7664,0
289,133,8036,83,56,95,-2824,-58,-7657,0
327,133,8164,127,56,95,-2847,-70,-7685,0
271,135,8056,146,27,105,-2852,-75,-7667,0
307,110,7949,118,5,95,-2844,-85,-7671,0
263,127,8149,91,19,100,-2818,-98,-7722,0
305,194,8086,101,17,98,-2829,-60,-7726,0
217,117,7896,141,20,107,-2844,-57,-7709,0
260,140,8064,123,39,88,-2823,-75,-7642,0
247,87,8164,114,50,95,-2839,-92,-7647,0
291,118,8022,118,49,90,-2824,-73,-7684,0
260,203,7943,119,53,99,-2838,-50,-7656,0
232,127,8034,118,40,97,-2849,5,-7718,0
313,112,8114,126,32,98,-2839,-72,-7732,0
273,86,8178,143,22,87,-2852,-79,-7708,0
279,151,8002,76,35,97,-2859,-66,-7708,0
286,160,8106,117,22,99,-2894,-83,-7731,0
235,126,8179,103,27,94,-2894,-48,-7696,0
202,52,8116,158,38,94,-2856,-64,-7746,0
197,135,8007,82,44,95,-2870,-63,-7715,0
280,114,8058,141,55,101,-2843,-70,-7779,0
322,151,8076,130,73,96,-2875,-44,-7704,0
239,96,7952,139,78,93,-2882,-66,-7751,0
346,46,7942,97,68,100,-2867,-77,-7791,0
305,165,7999,134,47,98,-2866,-90,-7777,0
169,106,8187,87,42,99,-2821,-80,-7705,0
378,87,8074,171,31,99,-2813,-63,-7725,0
304,67,8151,106,35,90,-2831,-96,-7807,0
257,97,7996,128,24,94,-2841,-90,-7766,0
247,201,8006,109,36,90,-2834,-36,-7713,0
292,135,8203,121,53,95,-2869,-58,-7744,0
282,109,7834,109,48,95,-2825,-115,-7723,0
289,71,7933,124,45,103,-2851,-72,-7746,0
244,192,8006,76,34,89,-2861,-80,-7722,0
249,157,8247,130,28,90,-2865,-70,-7737,0
192,179,7903,83,25,95,-2880,-92,-7719,0
294,74,8075,181,18,103,-2841,-66,-7727,0
290,282,8086,40,54,97,-2811,-44,-7715,0
471,471,8141,117,41,103,-2851,-60,-7750,0
272,391,8067,0,49,90,-2849,-26,-7737,0
335,513,8225,140,11,102,-2858,-40,-7731,0
281,478,8098,64,32,103,-2897,-5,-7727,0
222,439,7845,98,22,90,-2924,8,-7729,0
176,657,8073,-278,81,97,-2915,16,-7685,0
179,140,8174,111,12,93,-2901,35,-7631,0
196,391,8013,161,5,88,-2982,-13,-7648,0
253,446,8004,196,15,104,-2954,-37,-7633,0
272,531,8095,127,28,101,-2941,-28,-7640,0
197,634,8131,96,21,99,-2959,-91,-7636,0
174,768,7957,123,23,94,-2973,-89,-7625,0
277,706,8075,138,37,81,-2972,-165,-7651,0
172,698,8043,136,21,82,-2953,-132,-7666,0
255,686,7920,75,28,73,-2953,-212,-7655,0
165,685,8145,157,9,89,-2874,-220,-7586,0
194,668,8001,113,24,80,-2853,-197,-7646,0
199,787,8255,122,33,83,-2770,-185,-7653,0
153,676,8172,140,31,83,-2742,-195,-7660,0
158,775,8097,78,44,67,-2724,-172,-7616,0
248,767,8151,170,38,83,-2660,-201,-7606,0
198,546,7941,107,54,72,-2658,-207,-7584,0
124,749,8182,124,47,75,-2614,-160,-7604,0
185,657,8224,121,61,70,-2543,-135,-7645,0
177,711,8240,125,50,60,-2515,-113,-7663,0
113,735,8033,133,36,65,-2455,-73,-7681,0
314,849,8275,101,38,45,-2429,-25,-7704,0
212,780,7750,115,40,62,-2418,39,-7626,0
320,692,7942,147,36,58,-2400,78,-7685,0
307,670,8057,101,40,61,-2469,122,-7702,0
159,626,8193,118,31,68,-2485,162,-7657,0
223,669,7800,142,32,82,-2522,127,-7666,0
170,787,8227,101,35,70,-2509,83,-7706,0
403,778,8256,65,49,76,-2512,17,-7690,0
192,627,8087,86,55,89,-2492,-65,-7708,0
289,778,7976,47,44,84,-2459,-105,-7772,0
328,484,8017,205,22,75,-2437,-53,-7766,0
223,353,8168,185,43,89,-2422,44,-7774,0
135,873,8011,76,37,93,-2483,98,-7761,0
162,516,8073,189,32,79,-2575,133,-7672,0
63,950,7715,79,35,81,-2660,128,-7705,0
427,728,8217,91,50,89,-2737,122,-7647,0
215,754,7683,142,45,87,-2822,76,-7567,0
251,729,8242,155,69,89,-2801,-30,-7537,0
311,787,7904,59,75,78,-2758,-52,-7602,0
292,610,8036,85,82,95,-2696,-74,-7595,0
259,698,7868,61,64,92,-2642,-133,-7553,0
254,652,7429,106,44,84,-2587,-191,-7580,0
247,1197,7368,110,24,88,-2532,-147,-7643,0
322,960,8197,-11,37,91,-2545,-125,-7645,0
35,284,8238,18,19,97,-2551,-78,-7675,0
110,204,8291,152,-5,84,-2540,-98,-7639,0
209,258,8412,280,-21,86,-2559,-58,-7683,0
260,444,7605,209,5,89,-2525,-71,-7611,0
323,914,7989,219,9,101,-2561,-88,-7691,0
172,923,7973,95,28,101,-2579,-106,-7748,0
122,644,7525,125,41,94,-2571,-159,-7674,0
343,928,7526,28,36,90,-2575,-201,-7695,0
253,735,8154,358,-14,98,-2544,-181,-7805,0
274,482,8089,131,31,97,-2504,-209,-7852,0
-16,717,8148,104,21,91,-2522,-268,-7807,0
254,795,8092,125,51,96,-2472,-212,-7839,0
176,762,8168,269,20,88,-2476,-209,-7836,0
391,1142,7676,63,55,93,-2435,-212,-7796,0
109,1103,7495,34,43,93,-2418,-259,-7793,0
272,873,8028,98,44,85,-2416,-249,-7844,0
151,406,8216,194,2,102,-2398,-215,-7865,0
202,665,8152,174,13,105,-2399,-217,-7869,0
181,648,8340,183,2,98,-2391,-120,-7842,0
69,596,7743,261,5,100,-2378,-154,-7851,0
122,533,7837,365,13,107,-2367,-110,-7860,0
275,1026,7811,153,16,110,-2395,-125,-7858,0
211,622,7858,236,-1,115,-2392,-152,-7857,0
298,683,8127,144,23,106,-2374,-72,-7829,0
224,1176,8184,67,47,106,-2381,-91,-7857,0
-67,615,7968,306,13,112,-2398,-51,-7845,0
208,357,7907,394,-3,91,-2398,-36,-7852,0
100,728,8044,82,50,107,-2442,-19,-7799,0
329,777,8112,62,43,88,-2406,-119,-7846,0
199,818,8184,143,44,123,-2394,-42,-7858,0
383,884,8233,8,62,103,-2434,-108,-7921,0
67,460,8155,272,3,105,-2388,-107,-7915,0
161,630,7959,159,10,82,-2390,-121,-7907,0
325,1057,7595,139,36,113,-2418,-106,-7845,0
104,1099,8076,99,51,105,-2401,-141,-7916,0
-38,858,7821,366,-11,109,-2405,-64,-7921,0
414,1101,8003,378,-20,98,-2359,-35,-7992,0
356,1372,7924,137,57,95,-2408,-63,-7882,0
390,1514,7760,-74,103,100,-2382,-85,-7924,0
409,835,8145,136,80,113,-2392,-162,-7833,0
602,920,8132,36,99,113,-2375,-60,-7873,0
189,617,7804,498,-7,113,-2417,-62,-7930,0
377,680,7661,230,45,139,-2400,-31,-7947,0
398,531,8315,107,85,115,-2363,-90,-7938,0
359,895,8337,-55,78,119,-2367,-195,-7936,0
301,472,8181,260,-12,133,-2377,-186,-7859,0
48,476,8151,50,52,134,-2320,-82,-7805,0
542,344,8120,347,42,139,-2302,-25,-7803,0
404,639,8168,5,109,122,-2312,37,-7791,0
39,4,7917,1012,-31,113,-2392,75,-7856,0
1334,3162,6140,-970,391,196,-2375,99,-7891,0
292,988,7826,-9,65,113,-2411,83,-7944,0
469,948,7725,27,88,115,-2410,34,-7947,0
453,1046,8199,-48,77,106,-2448,-75,-7840,0
470,1333,7818,-228,92,119,-2455,18,-7808,0
282,353,7879,-26,45,117,-2459,96,-7792,0
250,274,7032,6,39,124,-2452,140,-7722,0
523,227,7904,419,14,119,-2441,41,-7707,0
307,701,7692,292,2,130,-2486,75,-7744,0
361,790,8316,780,-78,135,-2485,18,-7758,0
979,1079,8613,-9,83,125,-2498,-24,-7832,0
322,478,8603,546,41,127,-2491,-57,-7793,0
107,1083,6972,-65,69,112,-2437,-87,-7916,0
449,76,7333,38,62,164,-2424,-84,-7877,0
757,792,8509,-514,127,125,-2419,-38,-7868,0
181,-56,7609,807,-47,58,-2406,-71,-7790,0
427,-45,9292,-218,4,153,-2418,-18,-7821,0
473,-150,9593,322,4,99,-2378,-6,-7828,0
623,-82,9235,703,-35,98,-2397,-19,-7923,0
172,259,7273,1347,-174,161,-2360,-119,-7842,0
-10,420,7503,352,-23,127,-2376,-12,-7899,0
424,1196,7697,108,68,145,-2380,43,-7913,0
395,-37,8629,-369,88,168,-2432,71,-7912,0
380,1771,7037,236,-33,102,-2441,-17,-7909,0
273,631,8302,-64,126,134,-2429,-49,-8001,0
504,1238,8564,-330,67,122,-2420,18,-7948,0
-25,331,8537,501,-65,123,-2401,-63,-7895,0
-83,11,8267,852,-150,105,-2381,-64,-7975,0
690,1673,7232,232,29,135,-2348,-39,-7962,0
364,1747,7557,-396,108,152,-2391,13,-7936,0
416,-1936,9785,347,-13,113,-2386,-94,-7936,0
590,493,7528,213,63,170,-2381,-34,-7899,0
667,-291,7515,1244,88,87,-2360,54,-7939,0
569,12,7953,-711,154,167,-2402,-18,-7907,0
326,448,7916,627,-47,151,-2409,-3,-7985,0
873,797,7822,-145,152,163,-2365,28,-7894,0
870,1408,8221,186,94,144,-2380,55,-7881,0
-110,1842,8084,-75,90,143,-2378,-39,-7974,0
501,181,8621,452,-43,87,-2337,27,-7903,0
1247,804,7961,295,32,123,-2367,67,-7852,0
776,816,7991,246,11,120,-2359,27,-7874,0
1143,185,7941,149,109,145,-2367,56,-7926,0
793,313,7904,235,54,143,-2395,76,-7957,0
32,428,7910,95,12,67,-2391,-8,-7961,0
2,-102,8127,355,18,90,-2388,36,-7910,0
-219,1209,6958,-399,70,116,-2403,61,-7933,0
75,44,8393,282,-28,68,-2368,-7,-7886,0
182,4,8373,530,-5,97,-2404,-38,-7968,0
615,50,7823,6,34,107,-2403,2,-7876,0
162,339,8146,500,-102,58,-2342,4,-7917,0
376,-32,8624,328,47,54,-2401,-12,-7921,0
592,-32,8509,292,3,63,-2420,16,-7928,0
91,149,8055,312,-60,62,-2384,58,-7928,0
-114,739,7936,41,-75,34,-2414,-19,-7841,0
-87,1005,7623,-250,-13,20,-2402,56,-7936,0
740,332,8325,353,24,65,-2401,96,-7910,0
153,16,8366,393,7,46,-2369,-24,-7887,0
-608,32,9155,-248,-133,7,-2380,6,-7925,0
160,964,7566,1,11,40,-2415,37,-7922,0
-154,402,7937,396,-43,56,-2374,6,-7838,0
-396,263,7113,595,29,64,-2418,24,-7951,0
353,85,7429,379,0,57,-2430,40,-7913,0
-87,-986,9237,434,1,31,-2424,34,-7971,0
612,275,8193,125,137,106,-2421,23,-7933,0
-278,512,8658,-130,83,110,-2409,27,-7984,0
-119,-79,8001,839,5,57,-2421,19,-7907,0
317,-262,7828,15,134,94,-2415,-14,-7959,0
238,1304,7751,-676,239,91,-2441,-4,-7986,0
340,846,8052,-146,125,58,-2413,24,-7888,0
180,145,8119,570,46,82,-2360,-8,-7952,0
-547,897,7125,257,-66,84,-2389,18,-7940,0
297,-102,8050,587,54,52,-2382,-49,-7899,0
324,642,8257,-118,117,42,-2348,-93,-7899,0
692,44,8115,224,154,135,-2336,-33,-7888,0
-43,-715,8362,141,11,39,-2342,-1,-7857,0
517,-859,8906,141,83,105,-2356,-2,-7858,0
825,-372,8485,227,134,140,-2339,42,-7896,0
224,246,7875,6,-2,79,-2277,-26,-8056,0
227,-106,7458,625,77,77,-2272,-120,-7931,0
610,-319,8504,-22,125,32,-2274,-78,-7985,0
-278,-111,8758,267,20,47,-2325,-92,-7922,0
473,3,7934,-102,46,85,-2340,-81,-7847,0
12,195,8582,-263,-3,87,-2380,-42,-7914,0
-400,-71,7518,631,5,16,-2363,-72,-7924,0
472,141,6989,-933,228,107,-2382,-64,-7847,0
716,267,7407,438,93,115,-2430,-54,-7846,0
9,-77,9196,493,40,66,-2417,20,-7892,0
-18,154,8376,209,-57,43,-2349,-2,-7914,0
580,-89,8053,-273,83,71,-2381,-119,-7963,0
9,-2136,7968,1194,-81,99,-2411,-45,-7901,0
180,1132,7509,70,0,31,-2356,-30,-7911,0
371,103,8277,47,104,57,-2352,-51,-7975,0
447,198,7774,-295,136,61,-2324,-78,-8017,0
-212,1089,7351,168,-10,78,-2366,-63,-7964,0
64,31,8088,84,-29,26,-2353,-109,-7883,0
1271,1261,7346,-474,177,52,-2347,-67,-7966,0
328,-147,7968,-5,16,78,-2375,-87,-7960,0
192,632,7683,-453,69,71,-2317,-105,-7895,0
231,318,8175,764,11,74,-2340,-90,-8005,0
248,-132,7709,110,62,110,-2338,-69,-7977,0
287,191,8392,287,44,76,-2370,-67,-7952,0
459,-313,8115,-169,134,94,-2359,-86,-7983,0
451,232,7357,159,67,139,-2321,-80,-7994,0
103,-289,8941,146,0,115,-2385,-68,-7964,0
1482,1675,6370,-746,357,182,-2374,-109,-8037,0
-55,-10,7773,670,-76,88,-2378,-93,-7980,0
675,63,7945,18,77,132,-2362,-82,-7938,0
438,574,7756,-113,122,77,-2368,-108,-7989,0
-582,775,8038,-486,185,80,-2391,-93,-7987,0
605,137,7571,760,-40,125,-2370,-88,-7917,0
67,14,7394,-194,-6,84,-2347,-125,-7925,0
646,962,8090,-170,109,133,-2381,-79,-7952,0
833,1370,8442,-391,151,114,-2353,-88,-7923,0
-198,174,8507,805,-139,119,-2348,-111,-7966,0
283,208,8135,361,18,134,-2356,-68,-7978,0
573,547,7135,372,6,96,-2326,-98,-8016,0
1000,44,7719,-93,107,128,-2324,-135,-7915,0
460,8,8953,389,-17,88,-2346,-70,-7966,0
469,649,8291,-77,85,114,-2387,-34,-7942,0
454,85,8302,835,-69,67,-2343,-145,-7965,0
168,399,8473,267,-53,58,-2354,-92,-7943,0
237,1024,6768,38,-14,74,-2342,-92,-7960,0
176,125,8351,-270,30,85,-2370,-114,-7993,0
222,265,7304,-35,54,73,-2415,-74,-8012,0
-34,590,7998,13,33,67,-2350,-87,-8005,0
-154,553,7850,188,-46,43,-2358,-168,-7929,0
278,422,7963,-120,78,84,-2360,-130,-7959,0
74,517,8429,321,-34,85,-2360,-126,-7979,0
498,217,8112,343,-52,69,-2342,-151,-7927,0
33,571,7870,144,29,106,-2430,-99,-8002,0
-41,231,8132,122,13,66,-2364,-189,-7962,0
417,273,8314,669,-51,75,-2344,-242,-7967,0
141,405,8646,532,-45,77,-2334,-235,-7929,0
536,512,7977,17,36,83,-2310,-233,-7933,0
81,1317,7555,-219,36,93,-2233,-381,-8002,0
86,-67,7479,135,84,83,-2037,-322,-8055,0
-135,386,7022,10,90,110,-1990,-50,-7898,0
154,1225,7378,-84,67,92,-2157,143,-7864,0
7,730,7599,14,81,104,-2339,245,-7918,0
80,575,7947,-44,92,93,-2411,116,-7859,0
554,1211,6799,-130,68,64,-2444,92,-7789,0
342,1832,7143,0,0,128,-2504,103,-7738,0
285,-2124,7789,1078,-146,72,-2473,-156,-7783,0
-1021,1620,7428,-1083,230,90,-2373,-99,-7820,0
1017,-771,8674,729,193,40,-2393,49,-7746,0
-684,547,8114,-967,28,106,-2401,28,-7712,0
530,284,7821,542,52,128,-2522,108,-7775,0
256,-246,8839,278,8,103,-2581,106,-7722,0
395,810,7987,-597,180,153,-2549,26,-7782,0
877,456,7426,163,89,142,-2547,52,-7758,0
273,9,8990,195,30,124,-2604,7,-7695,0
483,180,7836,582,-34,142,-2627,-108,-7740,0
369,1246,8159,-51,73,126,-2482,-156,-7872,0
-48,524,7843,532,-63,106,-2440,-218,-7833,0
818,542,8121,516,26,138,-2406,-182,-7946,0
384,500,7682,347,-43,119,-2336,-180,-7980,0
-243,107,9175,620,-141,62,-2356,-206,-7988,0
41,201,6819,510,-26,141,-2339,-136,-7972,0
338,1017,7095,54,65,88,-2371,-118,-7921,0
-483,467,8757,-721,-30,88,-2385,-121,-8000,0
424,36,8424,687,-80,101,-2363,-101,-7974,0
-1069,493,9083,-795,63,62,-2367,-152,-7932,0
894,244,9078,862,-105,138,-2414,-97,-7932,0
590,-95,7984,408,58,126,-2378,-90,-7945,0
14,-311,8776,218,-6,60,-2380,-124,-7935,0
76,9,9049,113,-7,93,-2399,-78,-7937,0
463,-71,9522,572,-10,100,-2374,-32,-7866,0
680,-102,10343,-602,26,124,-2397,-33,-7967,0
-83,223,7884,1069,-182,75,-2366,-8,-7922,0
230,784,7069,303,-13,94,-2356,-58,-7917,0
561,752,7476,255,9,102,-2355,-61,-7954,0
-316,64,8214,-380,88,72,-2350,-79,-7915,0
-219,187,8093,930,-186,36,-2377,-48,-7871,0
-154,738,7346,-137,28,86,-2355,-36,-7919,0
595,-136,8576,119,106,114,-2380,-67,-7968,0
907,110,9008,434,46,94,-2378,-59,-7924,0
598,62,8547,331,47,63,-2380,-59,-7939,0
-16,22,8068,483,-58,65,-2330,-126,-7903,0
-494,68,7941,276,-40,95,-2342,-51,-7916,0
6,305,7996,495,-92,51,-2345,-47,-7862,0
169,-196,8824,419,109,111,-2371,-90,-8006,0
258,304,8085,-288,116,121,-2354,-56,-7922,0
407,381,8113,387,63,135,-2354,-108,-7981,0
399,-154,8859,705,76,51,-2345,-132,-8043,0
514,37,7058,121,63,53,-2320,-105,-7912,0
-260,479,7511,-990,0,53,-2320,-90,-8041,0
149,490,7831,-177,-4,50,-2268,-161,-8011,0
-634,728,8473,-445,24,44,-2272,-257,-7892,0
-404,793,7429,130,-58,51,-2317,-91,-7834,0
713,-14,8456,266,-48,56,-2333,4,-7822,0
-686,1953,7957,-1503,79,74,-2371,-20,-7929,0
553,-227,8774,867,-48,19,-2378,-13,-7953,0
313,-51,9108,-290,-9,61,-2384,-149,-7940,0
957,-1137,9136,1503,0,30,-2389,-103,-7948,0
245,441,7117,-141,89,90,-2389,-34,-7861,0
401,433,7602,-94,6,58,-2380,-72,-7922,0
-30,581,8198,123,18,71,-2355,-97,-7938,0
484,354,8669,637,-20,118,-2356,-85,-7878,0
-215,81,9186,0,92,97,-2356,-101,-7936,0
-155,101,6613,450,-24,76,-2368,-126,-7968,0
13,-124,6711,392,39,95,-2360,-49,-7952,0
272,-383,7422,616,0,75,-2393,-87,-7948,0
424,-84,8179,-777,149,95,-2375,-114,-7891,0
363,-132,7634,120,70,74,-2387,-96,-7955,0
-511,-47,8134,506,-82,65,-2416,-95,-7911,0
357,-378,7487,-36,42,85,-2404,-118,-7952,0
-148,648,7220,139,28,88,-2343,-90,-7992,0
-524,736,7176,537,-34,83,-2337,-163,-7921,0
487,347,8366,220,23,44,-2333,-134,-7950,0
685,360,7538,539,-5,101,-2327,-100,-7960,0
643,77,8829,743,1,80,-2363,-161,-7962,0
671,-123,8302,169,52,67,-2328,-69,-7911,0
753,170,7956,18,55,61,-2362,-143,-7916,0
402,-21,8506,200,63,94,-2364,-154,-7946,0
195,-31,8263,457,83,126,-2417,-93,-7968,0
807,-352,8075,-60,155,75,-2352,-168,-7938,0
1516,1049,6837,-487,157,139,-2364,-103,-7845,0
509,1496,7475,448,-48,98,-2382,-15,-7870,0
403,218,8104,-1099,119,132,-2353,23,-7988,0
190,477,8883,673,-80,98,-2368,-251,-8180,0
957,79,9290,-705,81,115,-2373,-312,-8007,0
346,1124,7283,160,-21,56,-2351,-210,-7845,0
9,1069,7705,52,13,80,-2359,-74,-7842,0
257,194,7547,262,70,122,-2453,-24,-7929,0
-20,161,7741,286,23,106,-2460,-63,-7924,0
-99,85,7557,664,95,68,-2398,-200,-7952,0
540,267,7832,421,15,89,-2400,-85,-7993,0
610,76,8324,437,31,94,-2452,-135,-8039,0
549,534,8321,16,51,99,-2403,-176,-7983,0
-96,79,7701,276,4,117,-2360,-137,-7906,0
309,2,7329,82,102,125,-2389,-112,-7914,0
-54,-209,9111,127,12,82,-2369,-105,-7959,0
13,519,7655,641,-95,79,-2340,-104,-8012,0
135,900,8014,140,1,94,-2355,-191,-8097,0
93,-122,8859,555,-12,63,-2299,-206,-7945,0
458,109,8232,213,-21,108,-2311,-156,-7942,0
161,494,8383,425,33,95,-2353,-94,-7922,0
319,-1855,8780,574,-34,42,-2394,-114,-8043,0
1249,1287,8097,-774,295,106,-2313,-99,-8019,0
1078,391,8353,258,52,92,-2370,-182,-7964,0
650,286,8547,185,26,99,-2335,-200,-7957,0
216,260,7701,277,12,103,-2341,-121,-7869,0
447,-54,8500,484,103,120,-2339,-92,-8004,0
58,-69,7033,209,74,110,-2363,-83,-8014,0
520,-64,6706,-216,0,79,-2319,-209,-8007,0
841,-395,7958,360,15,75,-2345,-158,-7975,0
193,-18,6614,258,28,68,-2308,-144,-7949,0
294,-264,7831,271,9,111,-2354,-56,-7987,0
363,-203,7369,437,0,100,-2382,-94,-8082,0
413,-863,7500,529,3,70,-2381,-173,-8066,0
122,509,8210,-102,1,78,-2396,-153,-8055,0
601,-1943,9204,462,18,70,-2402,-65,-8041,0
-265,217,7846,219,-16,89,-2388,-209,-8127,0
-48,-12,7458,373,37,91,-2371,-181,-8063,0
595,327,8449,-249,81,88,-2423,-182,-7965,0
-80,281,8464,421,20,90,-2367,-178,-8068,0
867,141,8323,122,90,121,-2369,-137,-8020,0
4,13,8565,820,-25,114,-2353,-187,-7988,0
275,-79,9065,677,108,89,-2320,-137,-8016,0
1181,1427,7556,-545,371,120,-2314,-138,-8011,0
491,284,7864,513,22,126,-2353,-162,-8049,0
922,-20,7787,391,130,104,-2373,-132,-8017,0
-686,44,7165,1097,-149,98,-2346,-150,-7963,0
802,458,8025,127,76,128,-2401,-138,-8076,0
298,-208,8788,334,21,71,-2412,-82,-8033,0
-132,4,7870,757,-29,90,-2377,-96,-8023,0
336,-30,7364,-9,39,91,-2391,-109,-8086,0
193,100,8955,-238,-59,118,-2440,-156,-8040,0
-26,-36,6785,-820,29,109,-2415,-128,-8007,0
-135,118,7028,1425,-218,128,-2376,-132,-7968,0
679,639,7882,-207,74,77,-2379,-129,-7944,0
-563,295,7396,-297,-88,82,-2388,-80,-8009,0
815,1620,7308,-273,-77,84,-2351,-88,-7953,0
139,-8,8015,368,-3,98,-2430,-107,-8016,0
533,583,8177,-99,61,104,-2384,-109,-7993,0
27,-174,7524,-160,-7,53,-2390,-71,-7889,0
591,-36,8434,-211,67,113,-2419,-70,-7962,0
-171,155,7752,588,-163,80,-2387,-36,-7962,0
525,-320,8919,504,-16,121,-2366,-133,-7967,0
271,-166,7986,133,74,130,-2399,-129,-7992,0
50,-862,7708,260,13,128,-2385,-105,-7968,0
1020,-377,7415,700,91,157,-2366,-123,-8001,0
339,-1409,9809,381,108,185,-2338,-76,-8009,0
160,-1485,8284,995,-20,128,-2365,-105,-7935,0
83,-1139,8520,442,-2,152,-2340,-59,-7981,0
680,-903,7973,112,119,168,-2368,-38,-7983,0
207,-367,7473,-343,111,186,-2355,-105,-7909,0
541,-1213,9081,-302,113,172,-2387,-27,-7981,0
493,-1210,9232,2,119,208,-2357,-34,-7994,0
865,-1183,9338,184,46,200,-2400,-120,-7933,0
662,-424,7236,-91,180,258,-2392,-90,-8058,0
544,-423,7258,-108,69,201,-2378,-90,-7971,0
544,-355,7656,113,183,226,-2365,-86,-7952,0
832,-1070,7933,217,157,262,-2328,-9,-7955,0
793,-728,7990,100,118,209,-2336,12,-7962,0
112,-2132,9101,817,-156,205,-2336,-115,-7965,0
-861,-4,8326,1063,-160,152,-2410,1,-7949,0
686,288,7478,69,80,204,-2384,-3,-7963,0
836,222,6667,-835,178,195,-2372,-26,-7947,0
286,-1132,8529,-217,72,196,-2420,-14,-7992,0
395,-869,8151,-554,140,169,-2355,91,-7953,0
920,-880,8393,-320,77,202,-2368,-2,-7971,0
124,-1409,8753,184,-54,101,-2388,40,-7981,0
853,-1212,9200,257,-13,154,-2372,54,-7962,0
548,-1264,8819,-67,78,231,-2386,-17,-7967,0
925,61,7600,582,-95,127,-2391,52,-7962,0
464,-1111,8585,708,-108,116,-2415,89,-7916,0
777,1998,7812,166,-26,140,-2419,39,-7914,0
777,193,8965,-243,67,186,-2401,88,-7924,0
769,90,7702,-277,-82,131,-2390,74,-7992,0
-217,85,8205,-153,-111,106,-2404,26,-7937,0
1096,-52,9042,577,18,124,-2390,18,-7983,0
281,125,7023,88,8,156,-2407,89,-7946,0
681,1314,7547,-246,98,136,-2400,78,-7934,0
752,-8,8481,482,123,168,-2418,72,-8004,0
409,133,8999,-1,71,148,-2398,82,-7961,0
1003,622,7899,50,119,163,-2406,109,-7891,0
1582,-1086,8257,883,113,198,-2409,61,-7893,0
878,886,8093,-372,175,162,-2416,89,-8001,0
763,379,7691,181,72,161,-2390,87,-7950,0
489,1050,6039,54,63,165,-2363,8,-7933,0
257,21,9010,991,-108,108,-2349,-2,-8011,0
22,-38,8827,588,-3,124,-2332,14,-8011,0
220,39,9019,821,-86,124,-2303,-23,-7947,0
647,-1494,9206,529,-43,157,-2264,-24,-8008,0
399,484,7925,-383,140,177,-2176,139,-7944,0
1316,-1785,7564,684,-117,139,-2134,297,-7881,0
791,891,7729,-786,49,193,-2268,439,-7865,0
359,85,8545,625,-53,186,-2394,518,-7844,0
815,-25,7718,533,129,221,-2474,462,-7848,0
554,1686,7164,356,-50,176,-2500,357,-7957,0
173,-345,8647,439,-25,155,-2541,346,-7940,0
333,485,7866,-171,146,205,-2560,286,-7870,0
254,-1202,8743,165,-97,134,-2531,220,-7834,0
684,114,7489,-204,66,208,-2514,261,-7775,0
379,206,7682,88,9,174,-2525,270,-7710,0
732,-10,8514,-523,76,189,-2520,192,-7677,0
395,359,8438,79,74,167,-2493,274,-7721,0
529,110,8126,237,66,201,-2466,258,-7795,0
793,-333,8744,564,47,173,-2487,284,-7791,0
645,69,7514,-38,67,179,-2568,318,-7833,0
550,205,8576,-250,-14,172,-2538,340,-7850,0
849,689,7349,-443,119,213,-2544,317,-7775,0
135,87,8229,594,141,166,-2552,273,-7846,0
442,167,8038,329,-38,156,-2508,303,-7817,0
699,19,7476,343,59,175,-2486,308,-7753,0
493,544,8455,296,-15,147,-2501,395,-7751,0
276,-244,9143,29,3,138,-2583,389,-7695,0
690,882,7785,-282,82,128,-2620,344,-7624,0
613,-365,7598,528,-13,126,-2592,370,-7797,0
360,-79,7829,-491,20,151,-2462,366,-7868,0
151,268,8367,324,-62,136,-2518,307,-7841,0
372,267,8097,204,83,141,-2613,372,-7837,0
740,20,7574,322,-69,103,-2664,446,-7752,0
364,-29,7817,101,-25,112,-2662,315,-7671,0
695,338,8382,205,32,130,-2633,351,-7703,0
334,-74,8382,49,122,135,-2635,350,-7693,0
649,182,7981,162,57,121,-2715,377,-7664,0
147,364,7015,437,-40,128,-2712,358,-7811,0
868,2373,7061,-334,76,150,-2607,212,-7879,0
602,-100,8203,168,-67,117,-2496,42,-7860,0
221,300,6930,275,-28,138,-2479,227,-7797,0
1342,-19,8859,-703,132,157,-2483,246,-7830,0
300,261,8264,-111,26,116,-2490,207,-7834,0
422,717,8557,-657,245,145,-2434,282,-7800,0
819,-50,8126,484,89,134,-2463,331,-7797,0
266,268,7178,336,-61,101,-2523,362,-7776,0
912,4,7765,-486,77,148,-2550,331,-7799,0
538,856,7469,461,-51,80,-2556,266,-7817,0
719,-15,8159,-1078,179,115,-2547,175,-7831,0
103,317,7841,662,-125,85,-2468,102,-7812,0
-114,1445,7765,-900,201,80,-2403,6,-7862,0
-231,-1527,8913,387,-102,55,-2286,-52,-7959,0
700,1774,6851,-458,126,115,-2038,-54,-7956,0
263,-19,8458,-240,91,128,-1954,186,-7939,0
-268,405,8437,767,-142,61,-2109,555,-7896,0
659,-49,8723,952,-39,44,-2436,708,-7832,0
75,524,8757,260,-11,75,-2587,522,-7753,0
215,551,7875,1064,-82,117,-2612,513,-7718,0
464,-337,8620,256,21,98,-2653,543,-7628,0
360,652,8101,663,-49,127,-2711,518,-7639,0
358,-121,7844,896,114,101,-2708,397,-7774,0
11,167,8065,-98,42,91,-2640,230,-7776,0
16,366,8649,221,39,126,-2546,194,-7909,0
-474,164,7846,887,-73,128,-2551,311,-7889,0
223,304,7842,-156,122,117,-2601,420,-7698,0
335,476,7062,146,36,98,-2664,584,-7686,0
-75,77,8051,1151,-181,50,-2793,480,-7652,0
495,409,7394,211,17,90,-2705,170,-7663,0
275,16,8976,135,51,95,-2456,200,-7787,0
-92,322,8579,1399,-156,127,-2498,462,-7708,0
350,-63,7647,186,8,99,-2701,491,-7743,0
232,252,8897,16,24,90,-2714,413,-7799,0
659,174,8271,897,-54,112,-2662,443,-7861,0
555,860,6965,82,62,112,-2706,392,-7855,0
55,48,7878,808,-27,121,-2721,338,-7713,0
-95,915,7698,99,-92,105,-2688,181,-7619,0
289,308,7654,1422,-199,110,-2628,186,-7813,0
584,-51,7578,-213,89,120,-2572,152,-7881,0
437,404,8249,573,1,121,-2459,148,-7811,0
18,-73,8190,430,24,92,-2396,228,-7866,0
819,988,7049,25,43,100,-2413,305,-7792,0
-115,0,8727,1072,-114,97,-2391,300,-7891,0
71,26,7360,276,35,99,-2430,305,-7940,0
-182,1706,7243,-412,46,72,-2460,270,-7892,0
390,-201,7200,94,122,91,-2538,270,-7878,0
230,9,6900,247,19,72,-2468,348,-7812,0
202,9,7753,432,-17,67,-2463,314,-7817,0
116,-420,8029,790,16,83,-2451,340,-7929,0
-642,445,7821,-633,3,62,-2461,314,-7973,0
34,27,8416,1142,-53,36,-2416,297,-7980,0
-170,-114,8454,58,-6,46,-2456,335,-8000,0
233,35,7722,6,45,90,-2452,245,-7921,0
252,-489,7650,46,94,116,-2476,251,-8051,0
224,-325,8212,-80,88,102,-2457,281,-7978,0
415,472,7052,427,-39,84,-2409,144,-8003,0
383,164,7416,97,-27,75,-2366,218,-7884,0
967,636,8044,-370,221,139,-2420,383,-7809,0
-46,425,7020,90,-5,84,-2435,407,-7894,0
46,904,8470,-22,36,92,-2454,358,-7985,0
570,893,7094,-17,76,96,-2384,172,-7989,0
-89,-67,7934,493,-42,105,-2363,190,-7943,0
-225,-140,8769,1117,-80,45,-2424,302,-7914,0
461,-217,8269,21,61,85,-2503,437,-7941,0
42,246,8528,-90,11,80,-2472,397,-8046,0
71,-2826,9279,598,-61,41,-2459,311,-8075,0
355,282,7540,-100,-58,104,-2487,216,-8112,0
-33,-245,7978,431,-8,86,-2461,258,-8054,0
543,314,7872,478,13,116,-2468,256,-8013,0
506,-434,9415,-88,83,153,-2486,251,-8053,0
-396,80,7847,803,-62,97,-2471,264,-7966,0
1164,-600,8190,1069,156,111,-2511,243,-7893,0
229,-208,7958,-602,160,131,-2475,282,-7846,0
167,-79,8256,59,73,135,-2480,409,-7800,0
275,-819,7853,247,46,117,-2515,487,-7855,0
-74,155,7380,-401,7,93,-2492,454,-7905,0
-29,840,6300,291,-82,64,-2538,367,-7790,0
862,-798,8992,176,38,105,-2546,432,-7793,0
565,6,8856,-71,26,79,-2595,429,-7866,0
807,-426,8164,893,107,103,-2593,299,-7869,0
473,118,8746,480,21,96,-2596,376,-7824,0
659,-39,7654,-131,102,119,-2604,445,-7829,0
813,1197,8094,-258,72,60,-2637,466,-7810,0
854,-864,7405,767,-54,92,-2559,464,-7996,0
321,21,8231,-474,53,108,-2609,412,-7973,0
381,-457,8027,805,28,107,-2602,353,-8050,0
203,-302,6879,-121,-7,114,-2637,358,-8055,0
423,-73,7566,-21,2,119,-2599,263,-7956,0
292,-433,7943,225,-68,73,-2629,304,-7954,0
992,-1204,8470,289,46,112,-2608,345,-7957,0
805,-696,8212,873,70,96,-2661,300,-7853,0
268,-114,8541,-870,75,63,-2611,295,-7959,0
-42,-1074,9744,595,-102,60,-2558,317,-7910,0
395,-19,7468,530,79,113,-2537,295,-7811,0
8,338,8193,257,-12,68,-2566,366,-7826,0
185,241,8065,389,-16,66,-2610,419,-7759,0
-380,5,7804,-648,76,76,-2665,374,-7847,0
-159,-869,7761,916,83,46,-2644,355,-7940,0
682,1676,6472,-439,270,169,-2615,365,-7930,0
16,-120,8167,333,34,87,-2572,304,-7943,0
193,367,8261,137,69,110,-2581,353,-7889,0
148,-90,8254,-102,13,96,-2563,361,-7796,0
-44,592,8609,-411,100,109,-2546,356,-7928,0
334,611,7571,216,4,102,-2552,417,-7788,0
189,-158,8768,201,-48,106,-2645,464,-7847,0
219,1505,6980,-434,73,119,-2622,403,-7910,0
420,804,7924,45,21,99,-2561,326,-7967,0
1436,-848,8517,717,8,146,-2567,283,-7842,0
497,50,8515,-382,-10,127,-2522,330,-7886,0
-18,-73,9277,421,61,125,-2454,346,-7918,0
817,-247,7733,724,96,91,-2456,316,-7862,0
548,-29,8361,-179,60,122,-2468,332,-7929,0
-242,-1581,8644,762,-164,56,-2396,329,-7907,0
178,126,8405,-96,-39,105,-2439,307,-7958,0
699,-603,8259,422,96,126,-2421,392,-7944,0
910,-171,8158,745,92,123,-2441,427,-7926,0
-44,587,8444,-302,31,147,-2450,357,-7887,0
382,-523,8986,855,-5,110,-2438,485,-7825,0
485,-99,7804,231,18,126,-2529,525,-7780,0
305,571,8015,22,104,139,-2572,511,-7814,0
556,-138,8328,191,-31,98,-2602,497,-7768,0
190,1143,7712,-458,103,116,-2594,437,-7787,0
1063,-988,8594,781,95,105,-2520,322,-7785,0
234,5,8157,611,-32,135,-2464,279,-7816,0
417,798,7109,275,-8,120,-2456,167,-7858,0
74,430,8894,-234,27,88,-2498,310,-7935,0
536,157,8743,1269,-144,178,-2450,329,-7969,0
386,-180,9190,215,-11,123,-2486,309,-7934,0
541,486,8137,-314,102,125,-2506,432,-7933,0
256,1833,6629,283,-38,101,-2499,490,-7938,0
-304,187,8218,565,-51,122,-2489,372,-7972,0
832,-222,8531,411,221,187,-2451,432,-7896,0
24,850,7286,-39,67,116,-2434,439,-7902,0
754,476,7014,353,29,139,-2465,430,-7984,0
514,-337,8312,750,85,115,-2439,470,-7930,0
639,1533,7813,-169,80,96,-2431,443,-7887,0
191,479,7858,420,-118,101,-2403,466,-7934,0
698,104,8902,4,128,151,-2443,456,-7946,0
911,17,8370,209,-11,92,-2464,444,-7995,0
-703,682,8011,-417,27,114,-2460,453,-7953,0
188,-74,9140,694,8,92,-2480,485,-7952,0
540,-4,7938,255,24,121,-2502,447,-8010,0
45,471,8888,54,-11,83,-2504,424,-7993,0
162,62,8085,819,-44,70,-2466,351,-7950,0
10,11,8510,242,46,88,-2498,364,-7941,0
150,-68,6706,81,77,103,-2489,381,-7891,0
917,950,6521,-11,-40,78,-2500,416,-7859,0
485,206,9083,165,20,107,-2496,505,-7871,0
242,79,7854,50,-13,142,-2547,459,-7894,0
67,517,8800,150,54,150,-2527,420,-7916,0
393,383,6720,213,99,161,-2486,410,-7946,0
583,-353,8757,157,214,168,-2472,383,-7939,0
364,101,8035,-13,68,119,-2490,424,-7924,0
798,72,8545,145,108,197,-2479,419,-7927,0
626,79,9291,542,24,132,-2448,400,-7875,0
376,1176,7682,-813,300,174,-2473,473,-7947,0
403,465,7657,490,-5,117,-2539,443,-7949,0
841,51,7379,162,56,142,-2521,381,-7978,0
396,472,7922,-171,148,169,-2441,457,-7887,0
-118,82,8219,304,3,119,-2448,402,-7892,0
-498,293,7990,-1231,48,167,-2476,457,-7846,0
1041,1005,8264,-459,176,148,-2476,487,-7886,0
872,59,8373,408,-9,104,-2515,449,-7866,0
288,1145,7985,-249,34,174,-2481,435,-7889,0
478,-229,8603,755,173,161,-2516,443,-7783,0
489,590,8200,-395,30,154,-2523,564,-7824,0
839,77,9180,70,77,176,-2543,621,-7834,0
1110,-6,7601,-618,116,178,-2508,438,-7924,0
713,182,7792,-116,172,187,-2450,350,-7947,0
205,-182,8008,523,125,143,-2502,383,-7809,0
-687,744,7956,-653,-29,129,-2491,439,-7825,0
504,164,7299,678,-57,155,-2474,447,-7802,0
904,447,8124,-17,74,168,-2503,402,-7804,0
640,81,8813,337,38,134,-2520,490,-7804,0
1242,-25,7960,66,154,192,-2558,548,-7821,0
746,-5,7916,-107,86,196,-2505,503,-7889,0
1556,1043,8773,-417,200,181,-2408,494,-7930,0
112,-160,9448,350,-26,142,-2417,460,-7896,0
-1025,1000,7483,-1279,-29,152,-2495,513,-7942,0
-477,62,8497,-285,88,191,-2522,494,-7971,0
108,-12,8508,2034,-170,225,-2481,382,-8003,0
133,-190,9739,492,5,139,-2443,424,-7927,0
424,-71,9283,749,129,227,-2453,435,-7932,0
874,74,7449,-17,-5,212,-2473,465,-7855,0
1310,426,9368,1844,-323,179,-2473,542,-7864,0
-56,-2833,10445,888,-261,63,-2508,487,-7870,0
-64,-1336,8070,731,-95,105,-2467,519,-7907,0
16,-1734,7805,447,-73,171,-2489,479,-7818,0
662,70,7791,-501,12,177,-2489,516,-7893,0
769,489,8413,493,-25,163,-2474,590,-7906,0
1295,-279,8699,604,222,150,-2466,514,-7909,0
359,-377,8294,2,59,143,-2494,521,-7920,0
393,728,8489,102,40,114,-2473,514,-7905,0
267,648,7961,24,-37,111,-2468,522,-7916,0
311,576,6566,88,-26,125,-2501,548,-7964,0
393,-77,8511,133,-49,99,-2508,506,-7951,0
226,289,9495,-84,-15,84,-2555,549,-7923,0
480,616,9189,87,-7,93,-2489,546,-7941,0
463,3,8513,277,-5,85,-2519,532,-7942,0
462,1653,7348,-142,22,61,-2507,531,-7930,0
-383,207,7603,672,-179,48,-2484,526,-7905,0
253,-122,7929,1013,-67,75,-2511,593,-7938,0
-8,-199,7519,361,-12,69,-2534,544,-7918,0
248,316,8498,-436,93,44,-2544,540,-7897,0
33,139,7770,57,2,69,-2550,550,-7881,0
-142,367,8410,-296,85,77,-2549,553,-7846,0
393,506,7545,-534,136,76,-2538,487,-7880,0
218,920,8234,-184,-20,17,-2513,521,-7872,0
21,0,7999,488,-32,36,-2504,455,-7904,0
375,-16,9430,-68,23,44,-2514,558,-7918,0
23,351,8272,72,109,65,-2512,505,-7870,0
342,412,8055,124,94,57,-2541,526,-7872,0
-4,485,7256,-63,31,22,-2521,494,-7852,0
-473,26,8371,225,-89,38,-2534,410,-7886,0
-221,-8,8123,301,-5,49,-2538,464,-7855,0
-131,63,8030,100,-18,12,-2501,498,-7885,0
-34,582,7544,-232,54,30,-2497,425,-7890,0
315,845,7734,-160,43,18,-2486,489,-7890,0
422,108,6896,70,21,43,-2498,473,-7806,0
-140,448,8128,79,-37,17,-2527,439,-7914,0
2,212,7368,327,-25,32,-2508,473,-7877,0
26,243,7541,370,10,27,-2542,372,-7802,0
-321,408,7232,180,-7,40,-2531,443,-7851,0
828,-567,8841,536,117,65,-2504,456,-7868,0
413,-89,9693,423,6,56,-2522,457,-7891,0
609,65,9392,-38,-21,41,-2579,498,-7899,0
-24,673,7903,-86,44,42,-2571,457,-7872,0
360,77,8729,188,60,40,-2529,413,-7824,0
426,1548,7610,-167,96,20,-2530,468,-7807,0
-41,2050,7471,-358,82,31,-2492,402,-7847,0
638,690,7915,834,-9,52,-2529,449,-7819,0
-82,-44,8193,260,-51,11,-2546,458,-7929,0
248,441,8627,468,-25,49,-2576,433,-7856,0
101,2,8399,181,33,53,-2552,433,-7830,0
-147,-7,9204,-107,16,20,-2562,474,-7802,0
-150,885,8222,-410,178,47,-2525,444,-7896,0
124,2097,7766,-421,125,28,-2516,472,-7877,0
465,1076,7088,-306,130,46,-2518,423,-7850,0
34,861,8154,94,14,27,-2508,411,-7928,0
644,28,8030,124,130,92,-2469,429,-7911,0
7,428,7220,488,11,86,-2424,326,-7884,0
658,562,7998,-275,174,98,-2450,387,-7908,0
-102,548,8285,375,-30,81,-2464,440,-7928,0
881,1198,5032,646,55,124,-2457,412,-7985,0
-294,91,7494,104,-30,81,-2499,361,-8012,0
373,261,7794,579,34,94,-2520,352,-7915,0
869,531,8568,282,43,81,-2438,268,-7894,0
47,411,9107,255,-27,78,-2407,359,-7850,0
381,1644,8389,-464,121,112,-2410,391,-7903,0
926,-1706,8682,959,89,123,-2347,376,-7979,0
-538,411,7279,-753,-7,88,-2332,416,-7951,0
-446,2686,6877,-437,42,31,-2341,341,-8017,0
-86,-1830,8764,308,-43,31,-2347,269,-7983,0
17,994,7965,296,-135,69,-2321,286,-7978,0
379,114,8511,1201,-213,105,-2381,264,-7934,0
476,-65,8858,-291,-22,76,-2400,284,-7977,0
140,331,7845,-39,36,104,-2399,355,-7867,0
384,6,7838,80,80,121,-2461,372,-7845,0
475,1393,7212,-488,211,134,-2441,416,-7867,0
95,31,7947,501,38,80,-2432,490,-7887,0
82,-73,7990,387,11,62,-2424,518,-7879,0
744,89,8056,714,-78,84,-2444,553,-7963,0
-403,1153,7686,-749,17,67,-2475,547,-8012,0
-280,-18,9453,-109,9,94,-2512,406,-7973,0
55,599,7557,-143,75,111,-2504,466,-7976,0
680,1754,7127,-518,167,104,-2510,619,-8020,0
563,543,8014,-26,118,86,-2477,594,-8124,0
305,-21,9062,1154,-71,121,-2407,292,-8450,0
