tstm,aX,aY,aZ,meanX,meanY,meanZ,stdX,stdY,stdZ,meanDiffX,meanDiffY,meanDiffZ,stdDiffX,stdDiffY,stdDiffZ,HardAccel,HardBrake,LaneChanL,LaneChanR,ui8LaneHole,Q
14114,-519,-138,7688,-562.871,-206.571,7936.029,143.012,169.751,325.482,-2.000,-5.000,-5.996,-0.710,-2.526,4.194,0,0,0,0,0,5.000
14214,-474,-379,8099,-563.214,-207.943,7936.500,142.770,170.747,325.693,-3.429,-13.714,4.712,-2.424,9.968,2.114,0,0,0,0,0,5.000
14314,-401,-180,7496,-561.900,-208.029,7935.271,143.830,170.732,327.187,13.143,-0.857,-12.285,10.598,-0.156,14.940,0,0,0,0,0,5.000
14414,-601,-355,8081,-560.457,-210.171,7938.386,142.921,171.619,327.522,14.429,-21.429,31.143,-9.089,8.876,3.346,0,0,0,0,0,5.000
14514,-314,-115,7891,-558.014,-209.186,7940.486,145.626,171.965,326.739,24.429,9.857,21.001,27.047,3.453,-7.828,0,0,0,0,0,5.000
14614,-728,-325,8156,-557.600,-209.957,7945.872,145.099,172.361,327.140,4.143,-7.714,53.857,-5.264,3.963,4.007,0,0,0,0,0,5.000
14714,-447,-170,8012,-557.443,-211.200,7948.671,145.213,171.754,326.855,1.571,-12.429,27.998,1.137,-6.073,-2.849,0,0,0,0,0,5.000
14814,-424,-222,8350,-554.543,-211.400,7951.186,145.820,171.758,329.247,29.000,-2.000,25.142,6.077,0.043,23.918,0,0,0,0,0,5.000
14914,-663,-254,8173,-554.800,-211.771,7952.128,145.996,171.822,329.786,-2.571,-3.714,9.429,1.751,0.636,5.389,0,0,0,0,0,5.000
15014,-336,-168,8259,-552.871,-211.614,7955.128,147.968,171.856,331.604,19.286,1.571,30.000,19.726,0.349,18.177,0,0,0,0,0,5.000
15114,-600,-327,7926,-550.829,-212.786,7951.186,146.307,172.359,330.283,20.428,-11.714,-39.429,-16.612,5.023,-13.206,0,0,0,0,0,5.000
15214,-477,-87,8118,-550.743,-211.043,7954.329,146.348,173.004,330.808,0.857,17.429,31.431,0.415,6.451,5.252,0,0,0,0,0,5.000
15314,-488,-352,7900,-553.657,-211.843,7955.586,143.000,173.524,330.432,-29.143,-8.000,12.573,-33.479,5.197,-3.762,0,0,0,0,0,5.000
15414,-528,-139,7608,-553.200,-212.200,7956.500,143.031,173.347,329.378,4.572,-3.571,9.141,0.302,-1.761,-10.536,0,0,0,0,0,5.000
15514,-446,-336,7964,-552.900,-211.900,7956.714,143.233,173.115,329.379,3.000,3.000,2.144,2.024,-2.329,0.003,0,0,0,0,0,5.000
15614,-525,-194,7955,-551.414,-214.800,7964.929,142.975,171.078,321.980,14.857,-29.000,82.144,-2.579,-20.364,-73.982,0,0,0,0,0,5.000
15714,-530,-363,7780,-550.443,-217.271,7965.372,142.886,171.949,321.704,9.714,-24.714,4.429,-0.889,8.712,-2.761,0,0,0,0,0,5.000
15814,-391,-157,8342,-549.443,-217.529,7972.500,143.751,171.846,324.430,10.000,-2.571,71.284,8.648,-1.038,27.261,0,0,0,0,0,5.000
15914,-643,-314,8076,-547.829,-218.257,7974.114,142.047,172.145,324.661,16.143,-7.286,16.143,-17.043,2.991,2.302,0,0,0,0,0,5.000
16014,-465,-174,8146,-541.686,-234.757,8007.114,136.073,94.040,198.570,61.428,-165.000,330.000,-59.743,-781.045,-1260.908,0,0,0,0,0,5.000
16114,-532,-241,8393,-541.700,-233.029,8008.071,136.071,92.789,200.259,-0.143,17.286,9.570,-0.011,-12.510,16.891,0,0,0,0,0,5.000
16214,-588,-267,8086,-541.200,-232.971,8007.943,135.836,92.767,200.206,5.000,0.571,-1.284,-2.356,-0.222,-0.530,0,0,0,0,0,5.000
16314,-401,-164,8256,-540.229,-231.300,8008.872,136.590,92.940,201.201,9.714,16.714,9.287,7.539,1.734,9.952,0,0,0,0,0,5.000
16414,-492,-230,7823,-536.586,-231.071,8005.486,134.410,92.924,202.303,36.429,2.286,-33.857,-21.801,-0.168,11.022,0,0,0,0,0,5.000
16514,-427,-79,8058,-533.071,-232.429,8007.200,134.012,89.951,202.233,35.143,-13.571,17.144,-3.973,-29.722,-0.707,0,0,0,0,0,5.000
16614,-500,-317,7857,-534.957,-235.171,8009.128,132.598,89.560,200.136,-18.857,-27.429,19.282,-14.148,-3.912,-20.961,0,0,0,0,0,5.000
16714,-486,-83,7683,-537.271,-234.829,8010.671,130.289,90.095,197.178,-23.143,3.429,15.430,-23.085,5.344,-29.582,0,0,0,0,0,5.000
16814,-416,-345,7962,-537.657,-233.900,8009.029,129.889,88.607,197.098,-3.857,9.286,-16.426,-4.002,-14.875,-0.804,0,0,0,0,0,5.000
16914,-544,-157,8189,-537.943,-234.429,8016.600,129.881,88.035,193.656,-2.857,-5.286,75.713,-0.083,-5.725,-34.418,0,0,0,0,0,5.000
17014,-517,-293,7982,-536.500,-233.057,8018.943,129.544,86.348,192.226,14.429,13.714,23.428,-3.368,-16.870,-14.301,0,0,0,0,0,5.000
17114,-402,-200,8063,-535.571,-233.057,8018.486,130.270,86.348,192.082,9.286,0.000,-4.570,7.258,-0.000,-1.434,0,0,0,0,0,5.000
17214,-620,-283,8084,-533.986,-234.614,8019.114,128.545,86.251,192.224,15.857,-15.571,6.284,-17.243,-0.963,1.413,0,0,0,0,0,5.000
17314,-453,-133,8024,-529.914,-233.957,8018.171,126.516,86.846,192.035,40.714,6.572,-9.429,-20.288,5.944,-1.882,0,0,0,0,0,5.000
17414,-455,-305,8112,-528.914,-235.571,8017.357,126.828,87.101,191.514,10.000,-16.143,-8.145,3.112,2.549,-5.212,0,0,0,0,0,5.000
17514,-542,-162,7929,-526.771,-232.800,8016.657,125.312,86.308,191.746,21.429,27.714,-6.997,-15.155,-7.932,2.320,0,0,0,0,0,5.000
17614,-505,-298,8336,-527.243,-234.129,8019.986,125.167,86.585,195.207,-4.714,-13.286,33.286,-1.449,2.772,34.611,0,0,0,0,0,5.000
17714,-576,-178,8197,-526.271,-233.700,8023.329,124.519,86.787,196.204,9.714,4.286,33.428,-6.477,2.023,9.966,0,0,0,0,0,5.000
17814,-559,-252,8016,-527.257,-235.357,8022.671,124.501,86.010,196.150,-9.857,-16.572,-6.572,-0.179,-7.773,-0.536,0,0,0,0,0,5.000
17914,-424,-235,8003,-527.771,-233.500,8026.700,123.999,84.582,192.780,-5.143,18.571,40.288,-5.030,-14.277,-33.702,0,0,0,0,0,5.000
18014,-494,-171,7808,-527.786,-233.257,8030.157,123.995,84.737,186.557,-0.143,2.429,34.570,-0.040,1.546,-62.233,0,0,0,0,0,5.000
18114,-566,-243,7969,-529.629,-231.986,8029.243,123.590,83.909,186.697,-18.429,12.714,-9.146,-4.050,-8.275,1.406,0,0,0,0,0,5.000
18214,-505,-148,7992,-529.071,-231.586,8032.514,123.611,84.241,183.990,5.572,4.000,32.715,0.219,3.320,-27.072,0,0,0,0,0,5.000
18314,-609,-272,7998,-529.957,-232.000,8034.757,123.958,84.367,182.594,-8.857,-4.143,22.432,3.469,1.263,-13.966,0,0,0,0,0,5.000
18414,-418,-166,8033,-529.114,-232.429,8031.957,124.515,83.954,181.090,8.429,-4.286,-28.003,5.565,-4.136,-15.035,0,0,0,0,0,5.000
18514,-450,-238,8052,-525.143,-231.329,8032.071,122.526,83.367,181.100,39.714,11.000,1.143,-19.893,-5.867,0.101,0,0,0,0,0,5.000
18614,-557,-273,7978,-524.086,-231.300,8030.400,121.925,83.352,181.052,10.572,0.286,-16.714,-6.001,-0.146,-0.486,0,0,0,0,0,5.000
18714,-418,-119,7907,-523.300,-232.286,8030.343,122.428,81.592,181.090,7.857,-9.857,-0.571,5.029,-17.605,0.383,0,0,0,0,0,5.000
18814,-516,-254,8069,-520.600,-230.571,8030.843,120.460,79.838,181.148,27.000,17.143,5.000,-19.687,-17.537,0.578,0,0,0,0,0,5.000
18914,-508,-142,7909,-520.529,-229.271,8028.400,120.466,80.526,181.621,0.714,13.000,-24.429,0.060,6.878,4.730,0,0,0,0,0,5.000
19014,-420,-343,8298,-515.886,-228.714,8033.486,117.962,79.597,184.097,46.428,5.571,50.859,-25.039,-9.291,24.769,0,0,0,0,0,5.000
19114,-482,-201,8047,-515.943,-229.614,8034.229,117.944,78.920,184.046,-0.571,-9.000,7.427,-0.174,-6.775,-0.519,0,0,0,0,0,5.000
19214,-549,-286,8286,-513.014,-228.986,8035.114,114.491,78.290,185.103,29.286,6.286,8.857,-34.528,-6.293,10.573,0,0,0,0,0,5.000
19314,-466,-192,8199,-509.957,-228.657,8036.671,112.837,78.396,186.014,30.571,3.286,15.571,-16.545,1.062,9.114,0,0,0,0,0,5.000
19414,-630,-190,8110,-512.957,-228.014,8038.000,113.196,78.526,186.201,-30.000,6.429,13.286,3.595,1.298,1.868,0,0,0,0,0,5.000
19514,-517,-281,8025,-511.700,-229.686,8032.900,112.655,78.391,181.540,12.571,-16.714,-51.001,-5.419,-1.353,-46.612,0,0,0,0,0,5.000
19614,-435,-154,8001,-511.357,-228.357,8036.814,112.851,78.873,177.818,3.429,13.286,39.146,1.962,4.819,-37.221,0,0,0,0,0,5.000
19714,-613,-247,7988,-512.643,-227.871,8033.000,113.487,78.651,175.950,-12.857,4.857,-38.145,6.362,-2.213,-18.673,0,0,0,0,0,5.000
19814,-427,-193,8034,-502.843,-229.057,8032.514,87.972,77.483,175.900,98.000,-11.857,-4.858,-255.151,-11.690,-0.504,0,0,0,0,0,5.000
19914,-463,-230,8077,-502.700,-227.800,8032.300,88.028,76.740,175.837,1.429,12.571,-2.144,0.564,-7.430,-0.634,0,0,0,0,0,5.000
20014,-564,-216,7975,-503.471,-228.143,8036.514,88.325,76.632,170.806,-7.714,-3.428,42.144,2.967,-1.072,-50.309,0,0,0,0,0,5.000
20114,-386,-221,7933,-500.157,-226.414,8034.771,88.318,75.399,171.230,33.143,17.286,-17.427,-0.070,-12.330,4.244,0,0,0,0,0,5.000
20214,-558,-294,8000,-502.757,-228.671,8036.200,87.298,75.023,170.515,-26.000,-22.571,14.287,-10.203,-3.764,-7.147,0,0,0,0,0,5.000
20314,-465,-116,7715,-499.343,-226.729,8032.314,83.971,76.146,174.642,34.143,19.429,-38.857,-33.272,11.233,41.262,0,0,0,0,0,5.000
20414,-439,-323,8147,-498.114,-227.829,8034.243,84.215,76.968,175.151,12.286,-11.000,19.282,2.444,8.222,5.097,0,0,0,0,0,5.000
20514,-474,-186,7863,-498.471,-228.000,8028.900,84.059,76.862,174.588,-3.571,-1.714,-53.428,-1.562,-1.068,-5.631,0,0,0,0,0,5.000
20614,-524,-288,8190,-496.086,-228.443,8029.257,80.870,77.116,174.892,23.857,-4.429,3.574,-31.887,2.547,3.034,0,0,0,0,0,5.000
20714,-363,-168,8155,-495.814,-228.186,8029.014,81.284,77.287,174.705,2.714,2.571,-2.432,4.133,1.709,-1.867,0,0,0,0,0,5.000
20814,-568,-266,8197,-494.900,-227.371,8027.343,80.098,76.581,172.516,9.143,8.143,-16.714,-11.857,-7.062,-21.885,0,0,0,0,0,5.000
20914,-527,-147,8138,-496.657,-226.943,8029.557,79.431,76.945,172.927,-17.571,4.286,22.144,-6.670,3.638,4.109,0,0,0,0,0,5.000
21014,-412,-121,8007,-496.600,-223.714,8031.043,79.490,76.580,172.279,0.571,32.286,14.858,0.594,-3.647,-6.481,0,0,0,0,0,5.000
21114,-681,-200,8002,-498.914,-224.600,8035.529,82.413,75.940,167.305,-23.143,-8.857,44.858,29.230,-6.406,-49.743,0,0,0,0,0,5.000
21214,-404,-135,7995,-497.914,-221.114,8034.043,83.131,74.356,167.196,10.000,34.857,-14.858,7.178,-15.837,-1.085,0,0,0,0,0,5.000
21314,-525,-197,8139,-499.686,-221.357,8043.229,82.365,74.249,154.570,-17.714,-2.429,91.855,-7.664,-1.070,-126.259,0,0,0,0,0,5.000
21414,-570,-140,8263,-499.243,-218.286,8045.829,81.901,73.095,156.700,4.428,30.714,26.001,-4.639,-11.539,21.295,0,0,0,0,0,5.000
21514,-272,-156,7881,-498.643,-218.871,8045.686,83.396,72.426,156.845,6.000,-5.857,-1.431,14.951,-6.688,1.456,0,0,0,0,0,5.000
21614,-384,-14,8269,-493.729,-214.429,8047.300,79.793,75.263,158.545,49.143,44.429,16.143,-36.025,28.368,16.994,0,0,0,0,0,5.000
21714,-512,269,7879,-494.657,-208.157,8045.400,79.622,94.528,159.749,-9.286,62.714,-18.999,-1.712,192.654,12.040,0,0,0,0,0,5.000
21814,-640,424,8268,-497.743,-198.929,8044.229,80.998,120.651,157.800,-30.857,92.286,-11.714,13.755,261.224,-19.491,0,0,0,0,0,5.000
21914,-458,628,8215,-494.814,-186.329,8044.829,78.641,155.317,158.367,29.286,126.000,6.001,-23.563,346.659,5.673,0,0,0,0,0,5.000
22014,-383,793,8112,-495.486,-172.600,8042.729,77.475,193.988,156.476,-6.714,137.286,-21.001,-11.668,386.710,-18.905,0,0,0,0,0,5.000
22114,-288,895,8143,-491.029,-155.143,8045.829,80.258,230.799,156.283,44.572,174.572,31.001,27.838,368.117,-1.938,0,0,0,0,0,5.000
22214,-642,737,8308,-493.386,-143.371,8048.543,82.211,253.838,159.136,-23.571,117.714,27.144,19.526,230.386,28.538,0,0,0,0,0,5.000
22314,-566,1104,7909,-494.500,-122.571,8048.671,82.658,292.586,159.020,-11.143,208.000,1.284,4.468,387.487,-1.165,0,0,0,0,0,5.000
22414,-551,883,8158,-494.829,-107.971,8056.529,82.836,315.967,150.407,-3.286,146.000,78.574,1.780,233.806,-86.132,0,0,0,0,0,5.000
22514,-284,619,8402,-492.514,-94.329,8062.786,86.356,326.276,155.453,23.143,136.429,62.568,35.201,103.090,50.466,0,0,0,0,0,5.000
22614,-551,116,8163,-492.886,-89.900,8065.757,86.550,326.996,155.353,-3.714,44.286,29.717,1.946,7.202,-1.008,0,0,0,0,0,5.000
22714,-410,310,7657,-491.171,-80.286,8064.000,86.986,328.714,159.222,17.143,96.143,-17.573,4.352,17.182,38.696,0,0,0,0,0,5.000
22814,-309,123,7694,-490.000,-76.286,8054.743,88.859,329.459,161.610,11.714,40.000,-92.573,18.731,7.449,23.874,0,0,0,0,0,5.000
22914,-773,890,8383,-491.857,-59.086,8059.128,93.285,347.533,166.227,-18.571,172.000,43.857,44.265,180.735,46.171,0,0,0,0,0,5.000
23014,-708,1070,8787,-495.329,-41.314,8068.286,96.681,372.138,187.105,-34.714,177.714,91.572,33.956,246.049,208.780,0,0,0,0,0,5.000
23114,-1031,979,7544,-502.457,-23.886,8056.157,115.656,390.493,193.084,-71.286,174.286,-121.284,189.753,183.557,59.797,0,0,0,0,0,5.000
23214,-276,982,7714,-498.000,-6.043,8050.843,118.256,407.157,197.264,44.572,178.429,-53.145,26.002,166.635,41.796,0,0,0,0,0,5.000
23314,-452,593,8435,-498.729,4.771,8053.400,117.813,412.831,201.031,-7.286,108.143,25.571,-4.436,56.746,37.671,0,0,0,0,0,5.000
23414,-611,487,8470,-500.429,15.014,8062.643,118.560,415.764,205.059,-17.000,102.429,92.432,7.468,29.324,40.276,0,0,0,0,0,5.000
23514,-312,533,7418,-498.786,23.757,8053.500,120.349,420.107,218.865,16.429,87.429,-91.431,17.894,43.431,138.061,0,0,0,0,0,5.000
23614,-642,833,7830,-500.814,40.186,8053.114,121.543,428.855,219.234,-20.286,164.286,-3.857,11.942,87.480,3.694,0,0,0,0,0,5.000
23714,-375,891,7797,-499.229,54.100,8054.743,122.447,440.281,216.890,15.857,139.143,16.284,9.037,114.261,-23.445,0,0,0,0,0,5.000
23814,-358,423,8253,-498.400,65.071,8058.900,123.201,439.768,217.859,8.286,109.714,41.572,7.543,-5.133,9.692,0,0,0,0,0,5.000
23914,-7,-695,8538,-490.729,57.386,8063.886,136.160,448.202,224.666,76.714,-76.857,49.858,129.590,84.344,68.074,0,0,0,0,0,5.000
24014,-853,-341,6938,-495.529,56.700,8048.971,142.764,448.774,261.277,-48.000,-6.857,-149.146,66.038,5.719,366.105,0,0,0,0,0,5.000
24114,-687,255,7888,-499.600,63.200,8046.471,144.096,448.304,261.967,-40.714,65.000,-25.000,13.323,-4.703,6.901,0,0,0,0,0,5.000
24214,-473,-134,9116,-497.500,65.329,8061.214,143.396,447.007,291.085,21.000,21.286,147.432,-7.005,-12.970,291.182,0,0,0,0,0,5.000
24314,-762,-208,7741,-501.914,64.257,8057.171,146.677,447.570,293.529,-44.143,-10.714,-40.430,32.807,5.637,24.438,0,0,0,0,0,5.000
24414,-491,-408,7204,-502.429,62.786,8044.200,146.574,448.949,310.397,-5.143,-14.714,-129.712,-1.023,13.787,168.686,0,0,0,0,0,5.000
24514,-748,-345,8659,-505.371,60.171,8054.628,149.380,450.779,318.509,-29.429,-26.143,104.282,28.061,18.304,81.115,0,0,0,0,0,5.000
24614,-504,417,8759,-505.357,70.386,8060.671,149.380,450.648,327.671,0.143,102.143,60.430,0.001,-1.310,91.619,0,0,0,0,0,5.000
24714,-461,972,8568,-503.714,86.814,8065.971,149.227,462.110,332.793,16.429,164.286,52.998,-1.537,114.617,51.226,0,0,0,0,0,5.000
24814,-565,601,7434,-503.800,99.000,8057.657,149.260,464.257,341.104,-0.857,121.857,-83.140,0.334,21.466,83.109,0,0,0,0,0,5.000
24914,-518,-98,7865,-505.143,100.957,8055.686,148.959,463.132,341.813,-13.429,19.571,-19.717,-3.014,-11.247,7.083,0,0,0,0,0,5.000
25014,-584,317,6845,-506.429,107.929,8041.929,149.245,462.658,369.743,-12.857,69.714,-137.568,2.864,-4.736,279.301,0,0,0,0,0,5.000
25114,-140,618,8085,-500.343,120.229,8043.586,155.256,464.606,369.672,60.857,123.000,16.572,60.112,19.479,-0.706,0,0,0,0,0,5.000
25214,-463,694,8459,-499.743,132.257,8050.257,155.318,468.390,372.881,6.000,120.286,66.714,0.620,37.841,32.089,0,0,0,0,0,5.000
25314,-905,286,7342,-503.971,140.229,8040.886,162.116,466.186,382.203,-42.286,79.714,-93.716,67.976,-22.047,93.225,0,0,0,0,0,5.000
25414,-560,253,6836,-506.000,146.214,8023.786,161.916,464.903,408.075,-20.286,59.857,-171.001,-2.001,-12.822,258.719,0,0,0,0,0,5.000
25514,-246,273,7643,-503.086,153.514,8017.943,164.709,462.820,410.550,29.143,73.000,-58.428,27.935,-20.831,24.747,0,0,0,0,0,5.000
25614,9,831,8982,-495.000,169.286,8032.286,175.409,466.811,426.145,80.857,157.714,143.428,107.000,39.903,155.955,0,0,0,0,0,5.000
25714,-1111,151,7321,-504.900,173.143,8023.914,189.754,465.526,434.204,-99.000,38.571,-83.716,143.445,-12.843,80.587,0,0,0,0,0,5.000
25814,-1920,1127,8074,-524.957,192.871,8023.986,253.396,476.148,434.212,-200.572,197.286,0.718,636.426,106.216,0.078,0,0,0,1,0,5.000
25914,-133,774,7420,-519.600,205.957,8017.000,257.627,479.341,439.902,53.572,130.857,-69.858,42.306,31.934,56.901,0,0,0,0,0,5.000
26014,189,1384,6928,-510.900,230.629,7997.429,270.790,494.651,457.104,87.000,246.714,-195.713,131.632,153.098,172.024,0,0,0,0,0,5.000
26114,686,-392,6740,-494.214,227.900,7978.757,305.781,497.543,480.779,166.857,-27.286,-186.714,349.912,28.918,236.744,0,0,0,0,0,5.000
26214,-746,-70,7468,-497.029,230.986,7967.071,307.176,495.010,483.104,-28.143,30.857,-116.860,13.946,-25.334,23.256,0,0,0,0,0,5.000
26314,-892,526,8059,-503.114,241.243,7965.071,310.701,493.575,482.429,-60.857,102.571,-20.000,35.247,-14.342,-6.749,0,0,0,0,0,5.000
26414,-728,579,8109,-504.514,252.229,7965.057,311.489,492.411,482.425,-14.000,109.857,-0.142,7.884,-11.640,-0.043,0,0,0,0,0,5.000
26514,-864,544,8885,-509.471,264.014,7977.343,314.396,489.371,494.592,-49.572,117.857,122.856,29.068,-30.400,121.673,0,0,0,0,0,5.000
26614,-1203,298,9775,-520.443,270.471,8002.686,324.833,486.788,538.643,-109.714,64.572,253.428,104.369,-25.830,440.510,0,0,0,0,0,5.000
26714,-1898,422,7172,-538.800,280.029,7991.029,363.547,483.088,547.591,-183.571,95.571,-116.567,387.142,-37.001,89.472,0,0,0,0,0,5.000
26814,378,-506,6733,-527.300,275.557,7972.443,379.293,488.860,567.532,115.000,-44.714,-185.859,157.459,57.718,199.415,0,0,0,0,0,5.000
26914,949,-257,7109,-507.129,275.171,7958.614,417.771,489.269,576.538,201.714,-3.857,-138.286,384.778,4.091,90.057,0,0,0,0,0,5.000
27014,-556,1389,7078,-507.014,298.100,7945.800,417.756,503.125,585.923,1.143,229.286,-128.145,-0.145,138.563,93.854,0,0,0,0,0,5.000
27114,-2128,461,7328,-531.900,307.843,7937.157,459.596,499.570,590.493,-248.857,97.429,-86.426,418.402,-35.558,45.694,0,0,0,0,0,5.000
27214,-1192,118,9847,-540.957,313.729,7963.543,466.221,494.849,632.484,-90.571,58.857,263.857,66.244,-47.206,419.914,0,0,0,0,0,5.000
27314,-1001,-277,8184,-548.614,311.429,7970.243,469.302,497.210,632.300,-76.571,-23.000,66.997,30.810,23.605,-1.843,0,0,0,0,0,5.000
27414,-629,470,8104,-551.329,322.757,7969.628,469.209,491.628,632.149,-27.143,113.286,-6.143,-0.923,-55.815,-1.511,0,0,0,0,0,5.000
27514,-575,386,8383,-552.771,330.929,7977.057,469.125,487.843,633.905,-14.429,81.714,74.287,-0.847,-37.849,17.563,0,0,0,0,0,5.000
27614,-829,672,7567,-557.129,344.643,7968.157,470.252,483.728,635.225,-43.572,137.143,-88.999,11.276,-41.157,13.199,0,0,0,0,0,5.000
27714,-221,35,8140,-555.100,347.543,7967.943,471.390,481.248,635.164,20.286,29.000,-2.144,11.380,-24.799,-0.607,0,0,0,0,0,5.000
27814,-198,604,7273,-549.814,359.971,7954.743,473.286,476.452,639.851,52.857,124.286,-132.002,18.963,-47.953,46.866,0,0,0,0,0,5.000
27914,-785,-193,9424,-553.500,359.314,7973.114,474.098,477.182,662.896,-36.857,-6.571,183.716,8.118,7.299,230.448,0,0,0,0,0,5.000
28014,-473,-416,8458,-554.371,355.100,7979.557,473.893,482.677,665.381,-8.714,-42.143,64.429,-2.048,54.944,24.850,0,0,0,0,0,5.000
28114,181,-70,8167,-542.057,356.957,7981.914,481.580,480.784,665.748,123.143,18.571,23.569,76.868,-18.930,3.676,0,0,0,0,0,5.000
28214,115,-1530,8551,-534.643,337.029,7989.857,487.606,527.413,669.165,74.142,-199.286,79.429,60.259,466.290,34.167,0,0,0,0,0,5.000
28314,2,-1282,7815,-527.114,321.529,7985.229,491.748,557.939,669.238,75.286,-155.000,-46.284,41.416,305.267,0.729,0,0,0,0,0,5.000
28414,-146,-130,7504,-521.057,321.671,7974.386,493.789,557.822,670.796,60.571,1.429,-108.428,20.415,-1.169,15.585,0,0,0,0,0,5.000
28514,-491,-497,7788,-524.186,316.800,7973.057,492.894,563.433,671.072,-31.286,-48.714,-13.286,-8.949,56.109,2.757,0,0,0,0,0,5.000
28614,-943,-796,9425,-532.171,305.629,7989.571,495.082,577.459,692.048,-79.857,-111.714,165.142,21.876,140.262,209.757,0,0,0,0,0,5.000
28714,-412,-924,8194,-530.743,288.586,7994.071,495.282,595.609,692.338,14.286,-170.428,45.000,2.004,181.491,2.905,0,0,0,0,0,5.000
28814,-349,-733,7810,-526.586,272.057,7987.529,495.569,607.555,691.883,41.572,-165.286,-65.425,2.866,119.468,-4.556,0,0,0,0,0,5.000
28914,-918,-640,8375,-533.157,253.943,7989.814,497.661,615.523,692.894,-65.715,-181.143,22.856,20.925,79.680,10.112,0,0,0,0,0,5.000
29014,-705,-300,7853,-537.757,238.329,7986.114,497.740,615.514,692.923,-46.000,-156.143,-37.002,0.789,-0.092,0.292,0,0,0,0,0,5.000
29114,-350,-291,7900,-538.643,221.386,7982.643,497.350,613.525,692.737,-8.857,-169.429,-34.712,-3.902,-19.890,-1.860,0,0,0,0,0,5.000
29214,-58,-453,8360,-530.300,204.386,7983.386,500.435,615.486,693.113,83.429,-170.000,7.427,30.849,19.610,3.762,0,0,0,0,0,5.000
29314,-714,-430,7692,-532.414,182.471,7980.286,500.894,610.353,693.924,-21.143,-219.143,-31.001,4.588,-51.332,8.106,0,0,0,0,0,5.000
29414,-301,-210,6898,-528.843,166.857,7962.286,501.639,606.199,705.329,35.715,-156.143,-180.000,7.454,-41.543,114.048,0,0,0,0,0,5.000
29514,-469,-209,8119,-531.486,155.029,7958.243,500.829,605.338,703.606,-26.429,-118.286,-40.430,-8.101,-8.603,-17.230,0,0,0,0,0,5.000
29614,-247,-387,8442,-527.143,147.843,7962.229,501.958,608.735,705.542,43.428,-71.857,39.858,11.287,33.965,19.362,0,0,0,0,0,5.000
29714,-259,-276,8647,-524.986,139.471,7976.372,502.780,610.474,709.195,21.572,-83.714,141.431,8.226,17.393,36.528,0,0,0,0,0,5.000
29814,-432,-467,8258,-526.743,131.043,7984.429,502.237,614.702,709.145,-17.571,-84.286,80.571,-5.433,42.277,-0.500,0,0,0,0,0,5.000
29914,-538,-603,8212,-523.386,109.714,7981.986,501.365,613.899,708.061,33.571,-213.286,-24.429,-8.727,-8.028,-10.835,0,0,0,0,0,5.000
30014,-576,-647,8460,-521.500,85.186,7977.314,500.914,609.325,703.800,18.857,-245.286,-46.714,-4.500,-45.740,-42.607,0,0,0,0,0,5.000
30114,-633,-647,8256,-515.814,61.957,7987.486,497.345,605.791,702.609,56.857,-232.286,101.714,-35.692,-35.339,-11.918,0,0,0,0,0,5.000
30214,-781,-279,8336,-523.029,43.943,7996.372,497.477,596.847,703.027,-72.143,-180.143,88.857,1.317,-89.439,4.182,0,0,0,0,0,5.000
30314,-940,-220,7811,-530.000,32.329,7987.457,499.846,593.953,701.363,-69.714,-116.143,-89.146,23.694,-28.940,-16.642,0,0,0,0,0,5.000
30414,-287,-519,7795,-525.371,17.957,7977.814,500.574,594.948,699.299,46.286,-143.714,-96.426,7.282,9.946,-20.634,0,0,0,0,0,5.000
30514,-453,-392,8379,-527.386,4.743,7991.543,499.995,593.633,697.605,-20.143,-132.143,137.285,-5.794,-13.152,-16.940,0,0,0,0,0,5.000
30614,-532,-34,8576,-525.814,-7.643,8002.200,499.805,585.207,700.747,15.715,-123.857,106.572,-1.898,-84.254,31.420,0,0,0,0,0,5.000
30714,-219,-366,8083,-523.586,-25.600,8006.286,500.820,576.579,700.372,22.286,-179.571,40.854,10.142,-86.284,-3.748,0,0,0,0,0,5.000
30814,69,-720,7288,-517.486,-41.929,7992.500,505.379,579.819,704.863,61.000,-163.286,-137.856,45.594,32.402,44.910,0,0,0,0,0,5.000
30914,-860,-593,7867,-529.671,-40.471,7982.914,503.202,578.302,701.936,-121.857,14.571,-95.859,-21.766,-15.168,-29.271,0,0,0,0,0,5.000
31014,-672,-1078,8301,-527.086,-51.000,8002.386,501.998,590.263,691.508,25.858,-105.286,194.717,-12.045,119.606,-104.285,0,0,0,0,0,5.000
31114,-903,-301,8716,-530.171,-58.943,8014.214,503.633,589.833,696.514,-30.858,-79.429,118.286,16.348,-4.301,50.057,0,0,0,0,0,5.000
31214,-522,-686,7867,-530.871,-66.829,7996.372,503.587,594.455,683.945,-7.000,-78.857,-178.428,-0.459,46.225,-125.687,0,0,0,0,0,5.000
31314,-129,-419,7217,-521.829,-69.843,7988.886,505.036,595.697,689.544,90.428,-30.143,-74.858,14.498,12.418,55.987,0,0,0,0,0,5.000
31414,-330,-552,8587,-519.529,-71.900,8008.643,505.538,597.108,686.578,23.000,-20.571,197.573,5.015,14.113,-29.651,0,0,0,0,0,5.000
31514,-349,-420,7288,-513.829,-72.971,7989.057,505.179,597.664,687.301,57.000,-10.714,-195.859,-3.589,5.561,7.228,0,0,0,0,0,5.000
31614,-667,-736,8623,-516.157,-89.443,7987.114,505.504,599.818,685.311,-23.286,-164.714,-19.429,3.249,21.539,-19.899,0,0,0,0,0,5.000
31714,-398,-483,7894,-515.257,-110.229,7977.486,505.657,587.765,681.808,9.000,-207.857,-96.284,1.535,-120.536,-35.031,0,0,0,0,0,5.000
31814,-504,-222,7203,-514.386,-121.986,7974.186,505.623,581.619,684.982,8.714,-117.571,-33.003,-0.340,-61.453,31.741,0,0,0,0,0,5.000
31914,-405,-636,8827,-512.771,-129.671,7987.929,505.790,584.798,692.266,16.143,-76.857,137.432,1.663,31.784,72.833,0,0,0,0,0,5.000
32014,-354,-729,7920,-509.486,-144.614,8003.286,506.063,586.554,678.528,32.857,-149.429,153.569,2.736,17.568,-137.374,0,0,0,0,0,5.000
32114,-383,-793,7634,-512.957,-164.771,7996.843,504.347,584.241,679.861,-34.714,-201.571,-64.429,-17.159,-23.137,13.333,0,0,0,0,0,5.000
32214,-1223,-748,8155,-523.814,-185.371,7992.500,511.288,578.996,677.863,-108.571,-206.000,-43.428,69.402,-52.444,-19.982,0,0,0,0,0,5.000
32314,-1022,-848,7991,-525.486,-201.571,8001.771,512.720,581.440,673.326,-16.714,-162.000,92.715,14.326,24.438,-45.372,0,0,0,0,0,5.000
32414,-721,-435,7185,-527.786,-211.400,8006.757,513.231,579.485,665.927,-23.000,-98.286,49.858,5.106,-19.554,-73.992,0,0,0,0,0,5.000
32514,-507,-359,8930,-531.514,-220.429,8025.143,512.117,576.784,673.355,-37.286,-90.286,183.857,-11.140,-27.005,74.284,0,0,0,0,0,5.000
32614,-525,-961,7725,-539.143,-246.029,8007.186,507.969,569.269,664.298,-76.286,-256.000,-179.575,-41.478,-75.156,-90.571,0,0,0,0,0,5.000
32714,-1112,-611,6162,-539.157,-256.914,7990.628,507.985,568.858,694.932,-0.143,-108.857,-165.571,0.161,-4.108,306.337,0,0,0,0,0,5.000
32814,-612,-857,8651,-520.471,-285.257,7998.872,480.142,548.252,699.280,186.857,-283.429,82.432,-278.429,-206.060,43.484,0,0,0,0,0,5.000
32914,-179,-784,9575,-521.129,-307.514,8029.657,479.643,536.292,720.240,-6.572,-222.571,307.856,-4.995,-119.598,209.602,0,0,0,0,0,5.000
33014,-504,-410,7579,-531.029,-333.143,8038.957,471.974,496.214,710.087,-99.000,-256.286,92.998,-76.689,-400.786,-101.536,0,0,0,0,0,5.000
33114,-1144,-358,9193,-557.171,-332.657,8074.000,454.185,496.172,705.632,-261.429,4.857,350.430,-177.887,-0.412,-44.547,0,0,0,0,0,5.000
33214,-467,-355,7201,-553.186,-336.729,8070.186,453.734,495.169,709.608,39.857,-40.714,-38.145,-4.506,-10.037,39.761,0,0,0,0,0,5.000
33314,-461,-243,8225,-547.029,-347.714,8072.557,452.016,484.318,709.844,61.572,-109.857,23.716,-17.185,-108.506,2.360,0,0,0,0,0,5.000
33414,-441,-469,7414,-542.929,-362.686,8062.628,451.657,471.467,714.113,41.000,-149.714,-99.287,-3.586,-128.508,42.684,0,0,0,0,0,5.000
33514,-594,-969,8769,-539.071,-384.300,8060.971,450.049,464.028,712.335,38.572,-216.143,-16.572,-16.083,-74.395,-17.779,0,0,0,0,0,5.000
33614,-595,-620,7630,-530.386,-397.414,8030.329,442.963,457.486,683.495,86.857,-131.143,-306.426,-70.860,-65.422,-288.399,0,0,0,0,0,5.000
33714,-861,-37,7800,-515.571,-403.971,8039.300,413.326,448.903,676.253,148.143,-65.572,89.712,-296.367,-85.828,-72.419,0,0,0,0,0,5.000
33814,-659,-435,8467,-530.386,-402.957,8064.071,399.382,448.751,659.500,-148.143,10.143,247.715,-139.438,-1.515,-167.529,0,0,0,0,0,5.000
33914,-619,-404,7769,-552.786,-405.057,8073.500,357.563,448.407,650.434,-224.000,-21.000,94.287,-418.195,-3.441,-90.663,0,0,0,0,0,5.000
34014,-470,-251,7811,-551.557,-428.486,8083.971,357.698,393.546,640.142,12.286,-234.286,104.712,1.346,-548.610,-102.919,0,0,0,0,0,5.000
34114,-425,-201,9218,-527.229,-437.943,8110.971,303.450,379.771,647.503,243.286,-94.572,270.000,-542.474,-137.754,73.611,0,0,0,0,0,5.000
34214,126,-239,7045,-508.400,-443.043,8070.943,302.507,374.633,625.169,188.286,-51.000,-400.283,-9.436,-51.378,-223.339,0,0,0,0,0,5.000
34314,-648,-86,7578,-503.357,-440.314,8062.286,297.148,376.523,627.734,50.428,27.285,-86.572,-53.590,18.902,25.650,0,0,0,0,0,5.000
34414,-511,-213,8976,-501.671,-450.071,8074.743,296.764,361.351,637.022,16.857,-97.571,124.570,-3.831,-151.722,92.878,0,0,0,0,0,5.000
34514,-77,567,7286,-494.557,-447.486,8059.071,300.862,367.912,642.714,71.143,25.857,-156.714,40.978,65.614,56.921,0,0,0,0,0,5.000
34614,-1040,139,8109,-497.571,-455.100,8066.814,305.223,349.731,639.998,-30.143,-76.143,77.432,43.610,-181.814,-27.157,0,0,0,0,0,5.000
34714,-347,-137,6739,-499.371,-457.557,8046.800,303.956,346.872,659.020,-18.000,-24.571,-200.146,-12.675,-28.594,190.220,0,0,0,0,0,5.000
34814,-1051,-183,8386,-511.557,-468.800,8062.700,308.691,324.302,653.563,-121.857,-112.429,159.004,47.354,-225.696,-54.572,0,0,0,0,0,5.000
34914,-505,37,7380,-507.557,-465.514,8033.500,306.931,328.221,637.555,40.000,32.857,-292.002,-17.601,39.191,-160.078,0,0,0,0,0,5.000
35014,42,207,7513,-500.200,-456.614,8020.000,313.767,337.751,638.428,73.571,89.000,-135.000,68.362,95.302,8.729,0,0,0,0,0,5.000
35114,-32,401,9075,-503.243,-449.886,8032.971,308.129,349.861,650.395,-30.428,67.286,129.712,-56.387,121.095,119.672,0,0,0,0,0,5.000
35214,136,495,7115,-502.943,-420.957,8012.457,308.740,343.007,656.352,3.000,289.286,-205.142,6.114,-68.539,59.565,0,0,0,0,0,5.000
35314,-415,-274,8375,-508.900,-406.557,8020.457,302.907,327.358,657.308,-59.571,144.000,80.000,-58.324,-156.484,9.566,0,0,0,0,0,5.000
35414,-822,-285,8170,-518.557,-408.771,8029.971,301.958,326.002,654.578,-96.571,-22.143,95.142,-9.492,-13.568,-27.300,0,0,0,0,0,5.000
35514,-741,-101,8441,-522.129,-403.114,8039.300,303.087,327.852,655.716,-35.715,56.571,93.286,11.293,18.506,11.372,0,0,0,0,0,5.000
35614,-326,21,7245,-513.314,-391.443,8008.157,299.672,328.200,640.761,88.143,116.714,-311.426,-34.154,3.479,-149.542,0,0,0,0,0,5.000
35714,503,1222,10262,-500.243,-360.786,8037.700,322.865,374.049,694.102,130.714,306.572,295.430,231.924,458.485,533.407,0,0,0,0,0,5.000
35814,965,-117,7487,-481.471,-351.986,8033.086,366.378,372.431,696.669,187.714,88.000,-46.143,435.135,-16.177,25.673,0,0,0,0,0,5.000
35914,7,29,7819,-468.257,-342.429,8025.143,367.076,373.500,695.895,132.143,95.572,-79.429,6.978,10.687,-7.745,0,0,0,0,0,5.000
36014,-697,80,9378,-468.143,-337.000,8046.929,367.003,376.824,713.805,1.143,54.286,217.856,-0.725,33.239,179.102,0,0,0,0,0,5.000
36114,345,-131,7880,-458.214,-334.714,8046.643,379.261,377.580,713.868,99.286,22.857,-2.856,122.581,7.566,0.627,0,0,0,0,0,5.000
36214,70,-854,8695,-456.386,-340.443,8051.429,381.489,382.343,717.068,18.286,-57.286,47.856,22.272,47.631,32.004,0,0,0,0,0,5.000
36314,200,-44,7630,-443.329,-334.929,8050.543,388.033,383.793,717.550,130.571,55.143,-8.857,65.448,14.494,4.814,0,0,0,0,0,5.000
36414,-485,-69,8438,-445.957,-332.914,8072.543,387.683,384.812,705.381,-26.286,20.143,220.000,-3.500,10.190,-121.691,0,0,0,0,0,5.000
36514,-3346,-1121,7462,-487.057,-345.943,8063.157,518.409,395.681,709.062,-411.000,-130.286,-93.857,1307.257,108.694,36.808,0,0,0,1,0,5.000
36614,-2298,-201,8575,-516.357,-343.286,8065.057,560.283,396.021,710.251,-293.000,26.572,18.999,418.734,3.398,11.898,0,0,0,0,0,5.000
36714,-921,-142,8014,-525.814,-341.371,8056.014,561.445,396.665,706.806,-94.572,19.143,-90.430,11.620,6.440,-34.455,0,0,0,0,0,5.000
36814,-592,-342,7300,-528.100,-339.586,8042.329,561.384,396.376,712.018,-22.857,17.857,-136.855,-0.609,-2.884,52.120,0,0,0,0,0,5.000
36914,-397,-358,8324,-526.086,-336.086,8043.929,561.597,395.115,712.523,20.143,35.000,16.001,2.137,-12.617,5.050,0,0,0,0,0,5.000
37014,-46,-127,7369,-518.514,-328.657,8028.343,564.439,394.086,715.179,75.714,74.286,-155.859,28.416,-10.284,26.557,0,0,0,0,0,5.000
37114,-467,113,7429,-516.143,-317.800,8016.529,564.302,395.632,718.145,23.714,108.571,-118.140,-1.373,15.461,29.663,0,0,0,0,0,5.000
37214,-711,634,7731,-515.143,-304.757,8007.886,563.893,411.431,717.889,10.000,130.428,-86.431,-4.083,157.982,-2.563,0,0,0,0,0,5.000
37314,-389,507,8966,-507.271,-294.371,8024.386,561.749,422.467,726.397,78.715,103.857,165.000,-21.440,110.362,85.081,0,0,0,0,0,5.000
37414,-425,51,7645,-509.243,-286.229,8022.243,561.215,423.550,727.291,-19.714,81.429,-21.431,-5.346,10.837,8.943,0,0,0,0,0,5.000
37514,-398,-174,8443,-508.457,-283.114,8023.157,561.331,423.563,727.779,7.857,31.143,9.146,1.167,0.124,4.880,0,0,0,0,0,5.000
37614,-255,203,7378,-504.500,-279.729,8006.043,562.127,426.478,728.663,39.572,33.857,-171.143,7.958,29.149,8.835,0,0,0,0,0,5.000
37714,-714,121,8267,-511.571,-272.771,8008.671,561.605,428.978,729.267,-70.714,69.572,26.284,-5.228,25.008,6.045,0,0,0,0,0,5.000
37814,-319,293,8175,-517.114,-258.300,8021.343,557.749,430.730,724.324,-55.428,144.714,126.714,-38.558,17.518,-49.428,0,0,0,0,0,5.000
37914,-173,2,8754,-507.300,-249.800,8034.014,557.673,429.912,729.255,98.143,85.000,126.714,-0.756,-8.187,49.310,0,0,0,0,0,5.000
38014,-178,11,8938,-500.243,-234.243,8043.114,558.669,419.231,736.469,70.571,155.571,91.001,9.960,-106.804,72.135,0,0,0,0,0,5.000
38114,-529,-91,7548,-494.900,-231.243,8026.429,556.576,419.494,734.263,53.429,30.000,-166.855,-20.928,2.628,-22.061,0,0,0,0,0,5.000
38214,-755,-223,7694,-498.229,-224.629,8023.957,557.424,415.906,735.086,-33.286,66.143,-24.717,8.482,-35.876,8.231,0,0,0,0,0,5.000
38314,-8,-913,9417,-496.500,-231.686,8055.386,558.753,423.271,746.849,17.286,-70.571,314.287,13.282,73.642,117.630,0,0,0,0,0,5.000
38414,-906,-26,7584,-504.729,-224.171,8041.057,560.479,422.185,746.133,-82.286,75.143,-143.286,17.262,-10.856,-7.155,0,0,0,0,0,5.000
38514,-996,-734,8963,-513.971,-228.657,8064.986,563.163,425.894,748.454,-92.429,-44.857,239.287,26.840,37.086,23.207,0,0,0,0,0,5.000
38614,-1041,-536,11048,-519.314,-225.800,8099.628,566.354,423.142,825.624,-53.428,28.571,346.426,31.916,-27.512,771.698,0,0,0,0,0,5.000
38714,-429,-165,7033,-519.757,-221.257,8087.329,566.272,422.062,834.956,-4.429,45.429,-122.998,-0.829,-10.800,93.325,0,0,0,0,0,5.000
38814,334,-686,7703,-507.786,-227.886,8094.471,575.265,425.650,829.481,119.714,-66.286,71.426,89.931,35.880,-54.750,0,0,0,0,0,5.000
38914,270,268,7241,-498.143,-214.971,8071.814,582.518,426.785,830.823,96.429,129.143,-226.567,72.537,11.341,13.413,0,0,0,0,0,5.000
39014,-185,-1,6632,-495.729,-204.571,8053.414,583.460,422.985,848.065,24.143,104.000,-184.004,9.418,-37.995,172.419,0,0,0,0,0,5.000
39114,-610,-154,7248,-498.971,-195.443,8047.900,583.456,417.041,852.019,-32.429,91.286,-55.142,-0.047,-59.441,39.548,0,0,0,0,0,5.000
39214,-683,-200,6602,-491.257,-187.614,8025.714,577.370,411.704,868.992,77.143,78.286,-221.855,-60.858,-53.366,169.727,0,0,0,0,0,5.000
39314,-1029,-90,9032,-491.357,-176.786,8040.586,577.462,404.090,877.140,-1.000,108.286,148.716,0.924,-76.137,81.479,0,0,0,0,0,5.000
39414,30,308,7472,-480.629,-166.171,8044.686,580.067,406.917,873.796,107.286,106.143,40.996,26.044,28.264,-33.444,0,0,0,0,0,5.000
39514,-645,-712,8034,-482.600,-171.214,8031.886,580.387,411.438,867.271,-19.714,-50.428,-127.998,3.207,45.207,-65.243,0,0,0,0,0,5.000
39614,-1806,534,6113,-500.900,-149.857,8008.857,601.256,408.679,896.039,-183.000,213.571,-230.288,208.686,-27.585,287.676,0,0,0,0,0,5.000
39714,-486,-1310,7863,-491.957,-159.843,8033.157,596.739,427.912,868.258,89.428,-99.857,243.003,-45.172,192.328,-277.808,0,0,0,0,0,5.000
39814,19,-652,9837,-482.943,-156.914,8050.100,599.616,423.812,891.412,90.143,29.286,169.429,28.776,-40.994,231.540,0,0,0,0,0,5.000
39914,887,869,8238,-467.714,-133.300,8031.000,620.321,434.140,872.660,152.286,236.143,-191.001,207.051,103.274,-187.519,0,0,0,0,0,5.000
40014,-1395,76,8626,-480.443,-126.357,8045.957,630.001,433.545,873.757,-127.286,69.429,149.570,96.797,-5.949,10.967,0,0,0,0,0,5.000
40114,-1427,384,7886,-484.486,-115.757,8027.286,635.133,436.810,862.944,-40.428,106.000,-186.714,51.324,32.654,-108.129,0,0,0,0,0,5.000
40214,-606,874,6892,-486.471,-98.200,8022.872,635.293,451.300,867.935,-19.857,175.571,-44.141,1.596,144.899,49.913,0,0,0,0,0,5.000
40314,599,810,7992,-471.329,-83.157,8019.543,648.221,463.605,867.601,151.429,150.429,-33.286,129.281,123.044,-3.348,0,0,0,0,0,5.000
40414,-135,-1,7878,-466.957,-76.471,8026.171,649.441,461.361,864.716,43.714,66.857,66.284,12.204,-22.433,-28.840,0,0,0,0,0,5.000
40514,-1643,-247,7722,-481.943,-66.157,8011.214,664.137,449.203,860.784,-149.857,103.143,-149.570,146.951,-121.585,-39.321,0,0,0,0,0,5.000
40614,-730,-122,9706,-483.871,-59.043,8040.872,664.658,444.292,882.625,-19.286,71.143,296.572,5.213,-49.111,218.407,0,0,0,0,0,5.000
40714,43,-159,6486,-470.957,-60.786,8022.100,665.986,444.441,901.323,129.143,-17.429,-187.715,13.279,1.493,186.980,0,0,0,0,0,5.000
40814,-1375,-588,9157,-481.186,-62.971,8031.957,674.242,446.647,909.867,-102.285,-21.857,98.569,82.567,22.057,85.442,0,0,0,0,0,5.000
40914,1358,-524,6553,-452.943,-64.686,8014.586,708.419,448.180,926.184,282.428,-17.143,-173.711,341.761,15.333,163.165,0,0,0,0,0,5.000
41014,825,-238,6762,-434.443,-64.500,7999.600,724.459,448.105,937.771,185.000,1.857,-149.858,160.406,-0.747,115.868,0,0,0,0,0,5.000
41114,-890,-125,9653,-441.086,-63.414,8005.814,726.471,447.865,947.218,-66.429,10.857,62.144,20.120,-2.398,94.470,0,0,0,0,0,5.000
41214,-951,-546,9266,-456.471,-67.800,8037.543,725.702,451.055,951.690,-153.857,-43.857,317.285,-7.687,31.897,44.719,0,0,0,0,0,5.000
41314,-32,-658,6825,-447.671,-75.971,8026.786,727.060,456.460,961.033,88.000,-81.714,-107.573,13.577,54.046,93.434,0,0,0,0,0,5.000
41414,-888,-618,8204,-453.057,-81.757,8015.757,728.903,460.707,954.484,-53.857,-57.857,-110.283,18.433,42.472,-65.490,0,0,0,0,0,5.000
41514,-121,-228,8716,-453.686,-93.114,8036.186,728.598,454.329,953.949,-6.286,-113.571,204.282,-3.058,-63.780,-5.346,0,0,0,0,0,5.000
41614,-234,-215,7390,-442.171,-98.171,8025.914,725.604,453.687,956.976,115.143,-50.571,-102.715,-29.940,-6.421,30.267,0,0,0,0,0,5.000
41714,-503,-282,7466,-444.400,-100.243,8036.300,725.547,454.190,946.845,-22.286,-20.714,103.857,-0.563,5.033,-101.314,0,0,0,0,0,5.000
41814,-142,-374,8150,-431.414,-102.971,8032.929,722.703,455.251,946.013,129.857,-27.286,-33.711,-28.441,10.614,-8.315,0,0,0,0,0,5.000
41914,-592,-208,7601,-432.657,-106.471,8036.086,722.904,455.104,944.196,-12.429,-35.000,31.572,2.004,-1.478,-18.172,0,0,0,0,0,5.000
42014,-526,-541,7715,-440.771,-117.157,8038.971,720.715,456.398,942.901,-81.143,-106.857,28.853,-21.890,12.939,-12.953,0,0,0,0,0,5.000
42114,-384,-1064,8176,-445.800,-138.086,8026.128,719.071,465.653,934.789,-50.286,-209.286,-128.428,-16.434,92.552,-81.113,0,0,0,0,0,5.000
42214,-408,-667,6810,-453.571,-154.686,8021.771,715.673,463.495,939.724,-77.715,-166.000,-43.569,-33.983,-21.577,49.345,0,0,0,0,0,5.000
42314,18,-1191,8374,-447.386,-167.786,8021.757,717.848,479.369,939.719,61.857,-131.000,-0.142,21.746,158.741,-0.054,0,0,0,0,0,5.000
42414,-132,-1356,8149,-437.529,-183.086,8021.457,717.373,499.534,939.674,98.571,-153.000,-3.003,-4.744,201.644,-0.441,0,0,0,0,0,5.000
42514,-219,-1557,7745,-430.071,-203.886,8011.514,716.893,525.330,938.865,74.571,-208.000,-99.429,-4.803,257.961,-8.099,0,0,0,0,0,5.000
42614,-542,-1539,7404,-433.157,-226.171,8013.786,716.903,547.920,937.198,-30.857,-222.857,22.715,0.102,225.908,-16.663,0,0,0,0,0,5.000
42714,-431,-1675,8886,-446.500,-267.557,7994.128,707.992,546.380,903.668,-133.429,-413.857,-196.572,-89.114,-15.403,-335.306,0,0,0,0,0,5.000
42814,-235,-1574,7197,-463.643,-288.371,7989.986,687.848,567.589,906.643,-171.429,-208.143,-41.426,-201.432,212.085,29.753,0,0,0,0,0,5.000
42914,-661,-688,8006,-473.186,-298.614,7992.657,685.884,568.238,906.411,-95.428,-102.429,26.714,-19.647,6.495,-2.322,0,0,0,0,0,5.000
43014,-613,-155,8451,-471.986,-301.971,7979.414,685.564,566.683,892.743,12.000,-33.571,-132.432,-3.192,-15.547,-136.682,0,0,0,0,0,5.000
43114,-252,-374,8071,-480.514,-305.443,7982.143,679.030,566.370,892.727,-85.286,-34.714,27.290,-65.342,-3.138,-0.162,0,0,0,0,0,5.000
43214,-480,-395,7885,-488.371,-298.886,7970.571,675.789,562.625,888.652,-78.571,65.572,-115.718,-32.413,-37.442,-40.747,0,0,0,0,0,5.000
43314,-736,-429,8207,-501.743,-304.386,7978.814,671.281,561.988,888.130,-133.714,-55.000,82.432,-45.078,-6.371,-5.214,0,0,0,0,0,5.000
43414,-192,-110,7823,-497.557,-304.971,7970.029,672.285,561.764,886.585,41.857,-5.857,-87.856,10.043,-2.242,-15.453,0,0,0,0,0,5.000
43514,-315,-388,7325,-454.257,-294.500,7968.071,578.498,553.222,887.855,433.000,104.714,-19.575,-937.875,-85.421,12.697,0,0,0,0,0,5.000
43614,-509,-309,8048,-428.700,-296.043,7960.543,534.310,553.110,884.906,255.571,-15.428,-75.283,-441.883,-1.122,-29.489,0,0,0,0,0,5.000
43714,-400,-281,8093,-421.257,-298.029,7961.671,531.019,552.803,885.024,74.429,-19.857,11.284,-32.910,-3.071,1.179,0,0,0,0,0,5.000
43814,-606,-554,7699,-421.457,-301.057,7967.372,531.086,553.615,882.024,-2.000,-30.286,57.002,0.670,8.127,-30.002,0,0,0,0,0,5.000
43914,-658,-468,8536,-425.186,-302.629,7970.400,531.817,553.931,883.605,-37.285,-15.714,30.283,7.309,3.155,15.818,0,0,0,0,0,5.000
44014,-115,-787,7661,-426.171,-312.057,7974.571,531.176,556.472,881.443,-9.857,-94.286,41.714,-6.402,25.414,-21.624,0,0,0,0,0,5.000
44114,-544,-675,8513,-427.271,-323.314,7990.057,531.339,555.730,881.244,-11.000,-112.572,154.858,1.631,-7.426,-1.988,0,0,0,0,0,5.000
44214,-269,-873,7553,-420.957,-344.843,7987.514,530.556,547.354,882.244,63.143,-215.286,-25.430,-7.835,-83.757,10.001,0,0,0,0,0,5.000
44314,-384,-773,7623,-420.886,-363.129,7968.329,530.561,539.921,875.333,0.714,-182.857,-191.855,0.046,-74.330,-69.116,0,0,0,0,0,5.000
44414,-693,-906,8248,-424.714,-376.800,7976.943,531.542,541.376,875.076,-38.286,-136.714,86.143,9.819,14.549,-2.572,0,0,0,0,0,5.000
44514,-612,-705,7473,-427.771,-384.386,7963.086,531.995,542.201,875.266,-30.571,-75.857,-138.569,4.529,8.249,1.902,0,0,0,0,0,5.000
44614,-391,-535,7389,-429.714,-394.929,7963.243,531.609,537.834,875.162,-19.429,-105.428,1.567,-3.864,-43.666,-1.042,0,0,0,0,0,5.000
44714,-365,-726,7550,-424.729,-407.029,7953.000,530.555,535.614,875.742,49.857,-121.000,-102.427,-10.540,-22.202,5.804,0,0,0,0,0,5.000
44814,-507,-963,9382,-427.414,-424.971,7970.243,530.489,532.894,891.681,-26.857,-179.429,172.427,-0.661,-27.203,159.391,0,0,0,0,0,5.000
44914,-182,-117,7241,-427.543,-426.671,7948.628,530.428,531.717,890.758,-1.286,-17.000,-216.143,-0.607,-11.763,-9.232,0,0,0,0,0,5.000
45014,-421,-176,7615,-431.014,-429.343,7929.729,529.578,529.979,883.572,-34.714,-26.714,-188.999,-8.499,-17.387,-71.863,0,0,0,0,0,5.000
45114,-421,593,8227,-429.471,-419.571,7939.429,529.448,542.289,883.055,15.428,97.714,97.002,-1.304,123.106,-5.169,0,0,0,0,0,5.000
45214,-559,778,8740,-426.671,-405.271,7954.372,528.236,560.187,887.614,28.000,143.000,149.429,-12.122,178.978,45.588,0,0,0,0,0,5.000
45314,-671,-178,8395,-436.143,-394.771,7939.771,526.585,557.453,871.698,-94.714,105.000,-146.001,-16.505,-27.336,-159.157,0,0,0,0,0,5.000
45414,-831,-301,8320,-435.071,-398.700,7950.286,525.704,555.807,871.782,10.714,-39.286,105.142,-8.815,-16.461,0.840,0,0,0,0,0,5.000
45514,-774,-479,7795,-431.900,-395.057,7933.600,522.973,554.432,863.376,31.714,36.429,-166.855,-27.310,-13.755,-84.058,0,0,0,0,0,5.000
45614,-587,890,7545,-425.414,-374.686,7883.557,518.172,574.706,778.786,64.857,203.714,-500.430,-48.008,202.741,-845.901,0,0,0,0,0,5.000
45714,-661,1218,8754,-428.729,-354.929,7908.143,518.925,604.571,778.712,-33.143,197.571,245.859,7.537,298.653,-0.745,0,0,0,0,0,5.000
45814,-365,604,7861,-438.714,-336.500,7910.400,510.814,613.789,778.343,-99.857,184.286,22.568,-81.113,92.178,-3.689,0,0,0,0,0,5.000
45914,-507,77,7879,-449.814,-339.229,7919.514,503.686,611.516,774.175,-111.000,-27.286,91.143,-71.285,-22.729,-41.676,0,0,0,0,0,5.000
46014,-919,333,9208,-460.300,-334.457,7956.314,505.700,615.427,773.323,-104.857,47.714,368.003,20.140,39.111,-8.519,0,0,0,0,0,5.000
46114,-800,959,8173,-463.014,-318.557,7969.529,507.004,633.982,768.998,-27.143,159.000,132.144,13.045,185.547,-43.254,0,0,0,0,0,5.000
46214,-422,818,8112,-459.286,-304.014,7991.100,506.332,648.054,751.310,37.286,145.428,215.713,-6.723,140.725,-176.882,0,0,0,0,0,5.000
46314,-810,566,8115,-456.157,-294.643,7978.000,503.470,655.779,740.969,31.286,93.714,-131.001,-28.613,77.242,-103.407,0,0,0,0,0,5.000
46414,-503,336,7584,-463.771,-294.243,7979.600,500.080,656.155,739.995,-76.143,4.000,16.001,-33.910,3.760,-9.738,0,0,0,0,0,5.000
46514,-500,606,8095,-461.700,-275.414,7980.471,499.625,662.773,740.094,20.714,188.286,8.711,-4.550,66.190,0.994,0,0,0,0,0,5.000
46614,-416,-648,8374,-441.843,-292.300,8012.771,472.699,656.968,706.462,198.571,-168.857,323.003,-269.259,-58.052,-336.326,0,0,0,0,0,5.000
46714,-447,-485,7340,-441.286,-280.514,8005.300,472.669,645.913,710.759,5.572,117.857,-74.717,-0.293,-110.557,42.969,0,0,0,0,0,5.000
46814,-368,-222,7999,-446.814,-274.371,7979.043,469.506,644.393,675.691,-55.286,61.429,-262.568,-31.634,-15.192,-350.673,0,0,0,0,0,5.000
46914,-752,-201,8561,-470.229,-289.657,7983.657,442.496,629.611,678.541,-234.143,-152.857,46.143,-270.097,-147.821,28.495,0,0,0,0,0,5.000
47014,-411,-328,8648,-456.171,-295.429,7983.971,428.297,628.083,678.843,140.572,-57.714,3.140,-141.992,-15.285,3.024,0,0,0,0,0,5.000
47114,-772,-416,8843,-446.814,-306.857,7997.643,413.898,622.873,686.328,93.571,-114.286,136.719,-143.993,-52.100,74.846,0,0,0,0,0,5.000
47214,-514,-361,7604,-445.500,-324.500,8007.814,413.536,606.449,675.050,13.143,-176.429,101.714,-3.619,-164.236,-112.776,0,0,0,0,0,5.000
47314,-808,-308,9150,-465.600,-340.471,8024.357,396.106,590.883,688.515,-201.000,-159.714,165.425,-174.299,-155.663,134.644,0,0,0,0,0,5.000
47414,-687,-384,7932,-473.486,-345.943,8025.128,394.939,589.486,688.381,-78.857,-54.714,7.715,-11.673,-13.972,-1.340,0,0,0,0,0,5.000
47514,-840,-771,7754,-462.014,-353.429,8025.586,371.785,591.505,688.190,114.714,-74.857,4.575,-231.531,20.196,-1.909,0,0,0,0,0,5.000
47614,57,-710,7956,-450.771,-361.829,8000.586,375.394,592.334,657.806,112.429,-84.000,-250.000,36.082,8.284,-303.833,0,0,0,0,0,5.000
47714,-285,-925,7250,-455.457,-372.771,8011.500,371.225,595.552,638.645,-46.857,-109.428,109.141,-41.687,32.187,-191.616,0,0,0,0,0,5.000
47814,14,101,7229,-435.614,-362.929,7983.957,358.446,597.604,630.167,198.429,98.429,-275.430,-127.793,20.516,-84.775,0,0,0,0,0,5.000
47914,-441,279,6486,-461.314,-351.457,7983.000,286.121,602.092,632.387,-257.000,114.714,-9.570,-723.246,44.883,22.195,0,0,0,0,0,5.000
48014,-847,17,8344,-485.200,-347.814,8005.600,244.505,603.537,616.414,-238.857,36.429,226.001,-416.163,14.451,-159.726,0,0,0,0,0,5.000
48114,-1395,-299,8967,-492.414,-350.300,7995.800,263.086,602.973,595.235,-72.143,-24.857,-98.003,185.816,-5.648,-211.796,0,0,0,0,0,5.000
48214,-756,-162,11514,-489.629,-344.814,8027.914,259.220,602.914,712.074,27.857,54.857,321.143,-38.666,-0.586,1168.391,0,0,0,0,1,5.000
48314,652,-22,5446,-479.857,-335.729,8008.214,287.622,602.918,762.379,97.714,90.857,-196.997,284.023,0.041,503.054,0,0,0,0,0,5.000
48414,229,29,7294,-463.900,-326.486,7995.214,295.416,603.479,766.676,159.572,92.429,-130.000,77.935,5.610,42.972,0,0,0,0,0,5.000
48514,-236,-559,6545,-465.543,-331.214,7964.200,293.820,603.985,780.675,-16.429,-47.286,-310.142,-15.960,5.064,139.986,0,0,0,0,0,5.000
48614,-293,140,9710,-466.386,-326.143,7997.343,293.238,606.425,804.478,-8.429,50.714,331.426,-5.814,24.399,238.033,0,0,0,0,0,5.000
48714,-278,-557,7632,-463.171,-330.071,7999.714,294.051,607.017,803.152,32.143,-39.286,23.716,8.131,5.918,-13.263,0,0,0,0,0,5.000
48814,-987,-292,9454,-475.243,-328.900,8018.343,297.938,607.010,821.339,-120.714,11.714,186.284,38.863,-0.068,181.866,0,0,0,0,0,5.000
48914,-720,-361,8328,-477.071,-331.086,8028.729,299.039,606.846,820.592,-18.286,-21.857,103.857,11.017,-1.638,-7.469,0,0,0,0,0,5.000
49014,-560,-384,7357,-477.557,-328.843,8023.614,299.146,606.356,823.641,-4.857,22.429,-51.143,1.067,-4.901,30.494,0,0,0,0,0,5.000
49114,-259,-191,8228,-475.771,-316.371,8024.357,300.071,600.053,823.801,17.857,124.714,7.427,9.248,-63.037,1.605,0,0,0,0,0,5.000
49214,-60,-232,7671,-470.800,-310.157,8036.657,304.009,598.640,811.920,49.714,62.143,123.003,39.385,-14.126,-118.811,0,0,0,0,0,5.000
49314,-382,-186,8947,-476.514,-295.800,8044.843,298.477,589.322,818.145,-57.143,143.571,81.855,-55.324,-93.184,62.245,0,0,0,0,0,5.000
49414,-515,-410,6449,-481.986,-282.286,8020.557,295.608,575.540,839.641,-54.714,135.143,-242.856,-28.689,-137.818,214.966,0,0,0,0,0,5.000
49514,-699,-760,9867,-488.843,-270.900,8050.872,294.995,557.821,867.006,-68.571,113.857,303.145,-6.133,-177.192,273.644,0,0,0,0,0,5.000
49614,53,-104,7569,-480.343,-250.400,8053.229,301.833,536.814,865.467,85.000,205.000,23.569,68.388,-210.070,-15.389,0,0,0,0,0,5.000
49714,-363,-527,6788,-479.371,-234.000,8023.257,302.100,509.902,872.408,9.714,164.000,-299.712,2.666,-269.115,69.413,0,0,0,0,0,5.000
49814,-120,-277,9185,-477.729,-215.471,8051.657,303.733,483.769,877.392,16.429,185.286,283.999,16.327,-261.335,49.841,0,0,0,0,0,5.000
49914,-174,-732,7702,-470.771,-216.100,8047.314,305.030,484.410,878.359,69.572,-6.286,-43.428,12.971,6.417,9.672,0,0,0,0,0,5.000
50014,-627,-716,7819,-470.971,-224.114,8038.286,305.128,487.961,877.411,-2.000,-80.143,-90.288,0.978,35.505,-9.482,0,0,0,0,0,5.000
50114,-85,38,6993,-468.586,-218.229,8022.886,307.474,488.602,886.119,23.857,58.857,-153.999,23.466,6.409,87.078,0,0,0,0,0,5.000
50214,-137,-948,7882,-463.686,-226.129,8022.843,309.976,495.813,886.126,49.000,-79.000,-0.430,25.020,72.116,0.067,0,0,0,0,0,5.000
50314,-404,-629,9084,-458.943,-228.986,8035.372,308.309,497.548,894.798,47.428,-28.571,125.288,-16.675,17.341,86.726,0,0,0,0,0,5.000
50414,249,-337,7052,-452.643,-232.229,8024.357,318.051,497.501,902.060,63.000,-32.429,-110.146,97.422,-0.463,72.620,0,0,0,0,0,5.000
50514,-83,-350,7427,-449.329,-231.686,8025.814,320.666,497.352,901.011,33.143,5.429,14.575,26.151,-1.495,-10.491,0,0,0,0,0,5.000
50614,-855,274,7596,-454.271,-223.357,8019.357,324.195,500.856,902.447,-49.428,83.286,-64.575,35.290,35.047,14.363,0,0,0,0,0,5.000
50714,399,138,6083,-442.857,-217.371,7990.643,339.604,502.632,931.168,114.143,59.857,-287.139,154.092,17.758,287.204,0,0,0,0,0,5.000
50814,243,19,7573,-430.729,-209.186,7988.843,348.602,501.748,931.851,121.286,81.857,-18.003,89.983,-8.839,6.836,0,0,0,0,0,5.000
50914,386,500,7151,-415.814,-195.357,7969.057,360.683,507.729,934.723,149.143,138.286,-197.856,120.810,59.802,28.715,0,0,0,0,0,5.000
51014,-363,168,9028,-419.357,-181.714,7988.586,358.925,504.468,942.332,-35.428,136.429,195.288,-17.585,-32.608,76.089,0,0,0,0,0,5.000
51114,22,513,9071,-411.271,-164.743,7996.557,362.385,507.561,949.070,80.857,169.714,79.712,34.597,30.934,67.385,0,0,0,0,0,5.000
51214,-50,154,8075,-408.143,-150.071,8004.014,364.538,501.685,947.606,31.286,146.714,74.570,21.537,-58.757,-14.648,0,0,0,0,0,5.000
51314,28,337,7913,-402.257,-134.214,8008.157,368.188,499.282,946.564,58.857,158.571,41.431,36.500,-24.034,-10.416,0,0,0,0,0,5.000
51414,-433,-317,7567,-398.543,-125.800,7998.429,366.544,491.100,947.548,37.143,84.143,-97.285,-16.440,-81.816,9.841,0,0,0,0,0,5.000
51514,111,271,7407,-388.214,-111.857,7997.486,370.549,488.305,948.103,103.286,139.429,-9.429,40.042,-27.951,5.550,0,0,0,0,0,5.000
51614,106,320,8052,-381.114,-99.643,8006.957,375.160,488.261,945.285,71.000,122.143,94.712,46.113,-0.437,-28.185,0,0,0,0,0,5.000
51714,264,-34,7515,-372.129,-89.757,8006.457,382.891,482.450,945.535,89.857,98.857,-5.000,77.315,-58.110,2.509,0,0,0,0,0,5.000
51814,-572,252,8354,-373.057,-72.400,7991.771,383.296,472.474,931.942,-9.286,173.571,-146.855,4.046,-99.760,-135.931,0,0,0,0,0,5.000
51914,-593,103,9356,-378.929,-69.257,8021.986,383.472,472.899,941.349,-58.714,31.429,302.144,1.762,4.243,94.072,0,0,0,0,0,5.000
52014,-23,498,8081,-373.243,-59.629,8028.643,385.750,477.467,940.095,56.857,96.286,66.572,22.778,45.681,-12.548,0,0,0,0,0,5.000
52114,-6,816,9055,-367.314,-56.443,8040.471,388.152,482.528,947.694,59.286,31.857,118.281,24.021,50.609,75.997,0,0,0,0,0,5.000
52214,-657,126,7716,-368.714,-65.757,8025.843,389.017,472.520,944.682,-14.000,-93.143,-146.284,8.646,-100.081,-30.123,0,0,0,0,0,5.000
52314,-505,168,8135,-366.343,-60.814,8022.128,387.670,473.129,943.734,23.714,49.429,-37.144,-13.463,6.092,-9.482,0,0,0,0,0,5.000
52414,-300,685,6330,-358.757,-46.729,7993.700,383.679,480.390,964.086,75.857,140.857,-284.282,-39.918,72.613,203.523,0,0,0,0,0,5.000
52514,-420,685,9716,-353.700,-30.100,8021.143,380.492,485.261,985.150,50.571,166.286,274.429,-31.868,48.704,210.641,0,0,0,0,0,5.000
52614,-601,303,7372,-353.900,-38.486,8018.671,380.618,474.235,986.558,-2.000,-83.857,-24.717,1.263,-110.260,14.075,0,0,0,0,0,5.000
52714,-955,419,8342,-358.100,-49.900,8012.786,385.574,452.995,983.377,-42.000,-114.143,-58.857,49.554,-212.397,-31.807,0,0,0,0,0,5.000
52814,-101,686,9989,-354.329,-48.729,8043.186,386.777,454.787,1010.727,37.714,11.714,303.999,12.033,17.920,273.499,0,0,0,0,0,5.000
52914,-513,592,9169,-354.414,-41.371,8061.614,386.811,460.886,1019.289,-0.857,73.571,184.287,0.345,60.991,85.624,0,0,0,0,0,5.000
53014,473,1273,9825,-334.529,-27.943,8070.429,393.007,484.678,1031.756,198.857,134.286,88.145,61.952,237.922,124.668,0,0,0,0,0,5.000
53114,-441,-275,8174,-329.400,-45.571,8070.443,389.223,470.701,1031.758,51.286,-176.286,0.142,-37.834,-139.776,0.015,0,0,0,0,0,5.000
53214,-1328,-413,7443,-342.343,-63.157,8060.886,406.756,461.004,1034.423,-129.429,-175.857,-95.571,175.328,-96.965,26.659,0,0,0,0,0,5.000
53314,-1183,-6,6876,-347.671,-71.329,8043.186,415.203,454.808,1043.903,-53.286,-81.714,-177.002,84.470,-61.966,94.794,0,0,0,0,0,5.000
53414,671,1092,8473,-330.900,-60.529,8055.886,431.962,472.965,1043.647,167.714,108.000,127.002,167.596,181.580,-2.559,0,0,0,0,0,5.000
53514,-721,-327,9834,-334.057,-73.857,8080.729,433.990,467.104,1064.766,-31.571,-133.286,248.428,20.273,-58.611,211.190,0,0,0,0,0,5.000
53614,-684,-7,6889,-337.886,-64.700,8059.514,435.874,462.014,1073.469,-38.286,91.571,-212.144,18.840,-50.899,87.035,0,0,0,0,0,5.000
53714,-980,-577,8319,-345.500,-66.014,8073.500,442.321,463.337,1070.378,-76.143,-13.143,139.858,64.473,13.228,-30.919,0,0,0,0,0,5.000
53814,-1610,474,5484,-363.243,-56.071,8037.571,467.085,467.334,1113.611,-177.429,99.429,-359.287,247.638,39.966,432.338,0,0,0,0,0,5.000
53914,418,662,6988,-346.529,-43.743,8015.100,473.760,474.673,1118.682,167.143,123.286,-224.712,66.757,73.397,50.702,0,0,0,0,0,5.000
54014,-285,592,7957,-344.729,-30.600,8005.229,473.752,479.335,1116.099,18.000,131.429,-98.716,-0.090,46.611,-25.825,0,0,0,0,0,5.000
54114,-806,1568,9391,-345.214,-2.257,8013.057,474.207,513.170,1123.843,-4.857,283.429,78.286,4.550,338.358,77.439,0,0,0,0,0,5.000
54214,-1184,-335,10541,-354.786,-1.886,8055.014,484.174,512.920,1161.966,-95.714,3.714,419.570,99.671,-2.505,381.229,0,0,0,0,0,5.000
54314,-1257,975,8377,-361.200,16.443,8043.971,493.028,524.448,1155.160,-64.143,183.286,-110.430,88.549,115.276,-68.055,0,0,0,0,0,5.000
54414,-1033,446,8961,-366.143,28.300,8058.671,497.980,524.643,1160.178,-49.428,118.571,147.002,49.511,1.950,50.181,0,0,0,0,0,5.000
54514,-2084,-335,9538,-383.914,34.529,8084.157,535.367,517.658,1172.732,-177.714,62.286,254.858,373.873,-69.846,125.541,0,0,0,0,0,5.000
54614,-1508,794,9437,-406.271,56.014,8105.314,548.991,517.522,1183.539,-223.571,214.857,211.572,136.246,-1.359,108.066,0,0,0,0,0,5.000
54714,-228,342,6227,-405.457,74.114,8090.700,549.213,504.898,1200.208,8.143,181.000,-146.143,2.215,-126.245,166.694,0,0,0,0,0,5.000
54814,-255,-749,8194,-409.300,61.971,8104.486,547.202,514.240,1195.766,-38.428,-121.429,137.856,-20.110,93.423,-44.429,0,0,0,0,0,5.000
54914,-743,-336,8536,-413.614,53.186,8133.771,548.624,515.708,1180.778,-43.143,-87.857,292.856,14.216,14.686,-149.877,0,0,0,0,0,5.000
55014,-657,265,8964,-410.900,56.729,8142.628,546.940,516.299,1184.641,27.143,35.429,88.569,-16.834,5.908,38.628,0,0,0,0,0,5.000
55114,-717,95,7896,-401.214,62.357,8127.329,535.307,514.535,1180.805,96.857,56.286,-152.998,-116.335,-17.642,-38.359,0,0,0,0,0,5.000
55214,-1504,-257,8564,-411.900,61.000,8085.186,549.558,515.250,1109.683,-106.857,-13.571,-421.431,142.515,7.148,-711.213,0,0,0,0,0,5.000
55314,-620,554,6390,-430.071,69.229,8098.671,534.914,518.448,1082.942,-181.714,82.286,134.858,-146.443,31.982,-267.415,0,0,0,0,0,5.000
55414,-1291,430,9384,-451.786,74.957,8128.529,538.558,520.184,1089.139,-217.143,57.286,298.574,36.440,17.363,61.967,0,0,0,0,0,5.000
55514,-518,297,6889,-455.814,87.186,8133.443,537.983,515.175,1082.740,-40.286,122.286,49.141,-5.747,-50.095,-63.987,0,0,0,0,0,5.000
55614,-248,-233,7395,-455.171,81.857,8100.372,538.204,516.528,1069.352,6.429,-53.286,-330.713,2.210,13.534,-133.876,0,0,0,0,0,5.000
55714,-869,19,8870,-463.614,90.086,8118.057,539.991,510.842,1071.695,-84.429,82.286,176.855,17.870,-56.862,23.423,0,0,0,0,0,5.000
55814,-1734,-362,10961,-474.286,89.086,8139.586,557.332,511.657,1112.669,-106.714,-10.000,215.288,173.406,8.148,409.739,0,0,0,0,0,5.000
55914,-990,559,6950,-478.143,102.229,8119.900,559.947,511.743,1121.317,-38.571,131.429,-196.860,26.154,0.858,86.488,0,0,0,0,0,5.000
56014,-1687,-415,6749,-494.243,101.786,8111.214,577.981,512.177,1129.518,-161.000,-4.429,-86.855,180.339,4.339,82.007,0,0,0,0,0,5.000
56114,-3101,-1160,9863,-534.843,87.943,8134.571,654.750,532.591,1148.438,-406.000,-138.429,233.569,767.687,204.142,189.199,0,0,0,1,0,5.000
56214,-1388,-1342,6907,-553.814,72.086,8123.657,659.935,557.808,1156.395,-189.714,-158.571,-109.141,51.854,252.171,79.565,0,0,0,0,0,5.000
56314,926,111,12059,-535.129,76.329,8168.114,682.662,556.958,1243.716,186.857,42.429,444.570,227.266,-8.503,873.214,0,0,0,0,0,5.000
56414,779,-832,6681,-516.643,70.300,8171.429,700.250,564.423,1239.432,184.857,-60.286,33.145,175.883,74.653,-42.838,0,0,0,0,0,5.000
56514,-501,-674,7088,-513.814,71.529,8131.729,699.907,562.705,1228.948,28.286,12.286,-397.002,-3.425,-17.177,-104.838,0,0,0,0,0,5.000
56614,207,633,5146,-511.614,82.057,8097.114,701.925,566.206,1277.475,22.000,105.286,-346.143,20.173,35.013,485.270,0,0,0,0,0,5.000
56714,-776,-352,9460,-517.514,84.557,8135.286,702.386,563.893,1277.708,-59.000,25.000,381.714,4.615,-23.131,2.330,0,0,0,0,0,5.000
56814,19,-670,8539,-515.529,78.943,8126.057,703.703,569.395,1272.415,19.857,-56.143,-92.285,13.163,55.013,-52.931,0,0,0,0,0,5.000
56914,-1143,657,8220,-529.371,98.786,8133.457,706.374,564.974,1271.433,-138.428,198.429,73.999,26.712,-44.208,-9.819,0,0,0,0,0,5.000
57014,-1253,123,6084,-538.314,110.771,8108.671,711.497,556.396,1294.032,-89.429,119.857,-247.856,51.234,-85.781,225.990,0,0,0,0,0,5.000
57114,-579,581,7732,-545.371,118.529,8119.229,709.413,559.106,1287.887,-70.571,77.571,105.571,-20.844,27.100,-61.451,0,0,0,0,0,5.000
57214,-763,-692,7949,-554.314,122.186,8120.186,708.153,552.921,1287.735,-89.429,36.571,9.570,-12.598,-61.851,-1.519,0,0,0,0,0,5.000
57314,-607,-749,8845,-557.214,120.471,8116.771,707.947,555.427,1285.490,-29.000,-17.143,-34.141,-2.057,25.067,-22.451,0,0,0,0,0,5.000
57414,-225,14,8057,-563.986,125.486,8131.128,702.449,552.853,1279.115,-67.714,50.143,143.569,-54.982,-25.742,-63.757,0,0,0,0,0,5.000
57514,-1123,103,7503,-578.843,131.957,8132.214,703.117,549.893,1278.548,-148.571,64.714,10.859,6.677,-29.603,-5.660,0,0,0,0,0,5.000
57614,67,-225,6279,-565.671,124.829,8113.400,706.448,551.238,1295.873,131.714,-71.286,-188.145,33.314,13.451,173.250,0,0,0,0,0,5.000
57714,-1619,-961,7035,-594.500,109.129,8127.000,707.668,566.090,1279.384,-288.286,-157.000,136.001,12.195,148.518,-164.897,0,0,0,0,0,5.000
57814,-2436,-805,8724,-632.771,97.357,8143.443,733.317,576.316,1279.555,-382.714,-117.714,164.429,256.491,102.266,1.709,0,0,0,0,0,5.000
57914,-159,-295,7642,-640.557,86.000,8150.457,725.309,576.103,1275.434,-77.857,-113.571,70.142,-80.084,-2.134,-41.205,0,0,0,0,0,5.000
58014,-1389,208,7711,-655.214,86.571,8131.643,729.904,576.204,1272.060,-146.572,5.714,-188.140,45.952,1.010,-33.744,0,0,0,0,0,5.000
58114,-1337,-1017,8658,-674.629,64.714,8125.743,729.706,588.501,1268.642,-194.143,-218.571,-59.004,-1.974,122.972,-34.174,0,0,0,0,0,5.000
58214,-1090,-751,7060,-689.486,51.786,8111.243,727.421,596.287,1274.924,-148.571,-129.286,-145.000,-22.851,77.858,62.820,0,0,0,0,0,5.000
58314,-2344,-1071,8158,-723.371,31.671,8114.743,748.161,609.919,1274.712,-338.857,-201.143,35.000,207.401,136.317,-2.128,0,0,0,0,0,5.000
58414,-1052,-1345,8959,-732.214,16.986,8134.628,748.335,630.177,1276.868,-88.429,-146.857,198.857,1.738,202.582,21.560,0,0,0,0,0,5.000
58514,-806,-513,8964,-745.314,5.786,8156.872,741.454,632.525,1277.560,-131.000,-112.000,222.432,-68.809,23.485,6.921,0,0,0,0,0,5.000
58614,-734,-288,4742,-757.314,-2.900,8109.586,734.343,632.325,1340.282,-120.000,-86.857,-472.856,-71.116,-2.000,627.227,0,0,0,0,0,5.000
58714,-824,-436,7036,-772.857,-8.643,8102.743,724.002,634.404,1344.517,-155.428,-57.429,-68.433,-103.401,20.784,42.343,0,0,0,0,0,5.000
58814,-1945,-902,9544,-792.471,-25.129,8119.743,736.781,642.361,1355.068,-196.143,-164.857,170.000,127.784,79.569,105.511,0,0,0,0,0,5.000
58914,-35,-1175,7804,-784.500,-43.386,8097.571,741.896,656.466,1347.334,79.714,-182.571,-221.714,51.156,141.056,-77.341,0,0,0,0,0,5.000
59014,468,-594,6112,-777.486,-58.986,8069.443,751.324,656.391,1367.784,70.143,-156.000,-281.284,94.278,-0.756,204.507,0,0,0,0,0,5.000
59114,-1428,-422,9484,-797.800,-76.671,8075.571,749.412,649.216,1373.137,-203.143,-176.857,61.284,-19.125,-71.747,53.530,0,0,0,0,0,5.000
59214,-895,37,7122,-801.200,-77.943,8067.086,749.305,648.905,1377.162,-34.000,-12.714,-84.854,-1.066,-3.111,40.251,0,0,0,0,0,5.000
59314,-92,-1160,8909,-795.300,-96.914,8078.143,753.230,660.742,1380.766,59.000,-189.714,110.571,39.247,118.370,36.035,0,0,0,0,0,5.000
59414,-293,-299,7388,-795.200,-110.971,8093.257,753.296,654.394,1367.272,1.000,-140.571,151.143,0.662,-63.479,-134.938,0,0,0,0,0,5.000
59514,-2082,-496,8239,-818.943,-127.843,8072.157,767.161,648.856,1353.393,-237.429,-168.714,-211.001,138.644,-55.383,-138.792,0,0,0,0,0,5.000
59614,-1919,-945,8226,-837.771,-145.671,8084.357,777.682,653.898,1350.873,-188.286,-178.286,121.997,105.217,50.428,-25.197,0,0,0,0,0,5.000
59714,-591,-764,7930,-832.571,-162.571,8078.471,778.098,654.373,1350.635,52.000,-169.000,-58.857,4.156,4.749,-2.379,0,0,0,0,0,5.000
59814,-567,-911,8479,-839.229,-185.386,8056.900,773.792,652.227,1331.878,-66.572,-228.143,-215.713,-43.060,-21.469,-187.577,0,0,0,0,0,5.000
59914,-2085,-771,6162,-861.686,-204.857,8013.943,786.702,649.066,1343.756,-224.572,-194.714,-429.570,129.100,-31.608,118.782,0,0,0,0,0,5.000
60014,-1807,-1367,10226,-894.257,-242.571,8019.671,777.918,638.715,1352.292,-325.714,-377.143,57.285,-87.837,-103.507,85.359,0,0,0,0,0,5.000
60114,370,-690,8429,-882.671,-248.500,8023.314,790.519,640.911,1353.046,115.857,-59.286,36.431,126.013,21.956,7.543,0,0,0,0,0,5.000
60214,-1754,-784,7183,-888.757,-253.800,8019.600,795.548,643.777,1354.989,-60.857,-53.000,-37.144,50.286,28.661,19.432,0,0,0,0,0,5.000
60314,312,-188,7777,-867.400,-256.400,8032.471,807.342,643.138,1348.328,213.571,-26.000,128.711,117.941,-6.389,-66.613,0,0,0,0,0,5.000
60414,-834,-1221,8607,-888.900,-289.443,8034.386,785.840,632.339,1349.047,-215.000,-330.429,19.146,-215.016,-107.988,7.190,0,0,0,0,0,5.000
60514,-585,-113,7165,-886.957,-286.386,7996.257,786.421,632.667,1335.292,19.429,30.572,-381.284,5.807,3.282,-137.546,0,0,0,0,0,5.000
60614,-483,-801,7475,-884.086,-297.729,8004.628,787.523,634.671,1330.151,28.715,-113.429,83.711,11.019,20.038,-51.411,0,0,0,0,0,5.000
60714,-1543,-482,10459,-892.129,-296.371,8035.200,791.327,634.174,1361.254,-80.429,13.571,305.718,38.041,-4.973,311.029,0,0,0,0,0,5.000
60814,-134,-1496,9941,-871.043,-324.514,8098.872,791.583,643.012,1344.569,210.858,-281.429,636.714,2.554,88.386,-166.855,0,0,0,0,0,5.000
60914,-1854,-1362,7877,-903.500,-353.429,8111.571,784.611,643.508,1338.200,-324.572,-289.143,126.997,-69.713,4.957,-63.691,0,0,0,0,0,5.000
61014,-1301,-1404,7556,-918.014,-381.943,8105.843,782.430,645.204,1339.706,-145.143,-285.143,-57.285,-21.813,16.957,15.068,0,0,0,0,0,5.000
61114,-3056,-1229,7105,-950.157,-421.900,8073.186,822.365,608.788,1335.838,-321.429,-399.571,-326.572,399.348,-364.156,-38.689,0,0,0,0,0,5.000
61214,-1914,-1571,12796,-960.586,-439.557,8105.400,829.859,623.752,1419.530,-104.285,-176.571,322.144,74.938,149.639,836.923,0,0,0,0,0,5.000
61314,-2298,159,7757,-975.457,-451.214,8096.543,844.240,604.536,1419.742,-148.715,-116.572,-88.569,143.817,-192.162,2.120,0,0,0,0,0,5.000
61414,257,-965,5758,-957.029,-471.371,8050.786,856.769,597.770,1442.575,184.286,-201.571,-457.573,125.292,-67.662,228.335,0,0,0,0,0,5.000
61514,-914,-446,6734,-940.314,-472.957,8010.729,845.965,597.553,1439.650,167.143,-15.857,-400.571,-108.041,-2.167,-29.255,0,0,0,0,0,5.000
61614,1685,133,9628,-894.700,-482.400,8013.457,898.573,582.490,1442.529,456.143,-94.428,27.285,526.078,-150.629,28.789,0,0,0,0,0,5.000
61714,2325,-926,7233,-858.229,-500.514,8027.829,973.574,576.254,1429.613,364.714,-181.143,143.716,750.008,-62.361,-129.161,0,0,0,0,0,5.000
61814,612,-749,8759,-845.843,-500.514,8035.900,986.597,576.254,1432.121,123.857,0.000,80.713,130.232,0.000,25.082,0,0,0,0,0,5.000
61914,-1388,-382,7666,-855.057,-501.171,8023.471,988.604,576.092,1431.502,-92.143,-6.571,-124.287,20.065,-1.617,-6.190,0,0,0,0,0,5.000
62014,-209,-965,8301,-848.657,-518.743,8014.000,991.312,571.193,1427.435,64.000,-175.714,-94.712,27.078,-48.997,-40.669,0,0,0,0,0,5.000
62114,-1719,-530,5303,-862.971,-527.671,7976.957,996.528,566.394,1463.213,-143.143,-89.286,-370.430,52.162,-47.989,357.783,0,0,0,0,0,5.000
62214,-1164,-31,7920,-858.114,-524.443,7967.757,994.217,568.567,1461.517,48.572,32.286,-91.997,-23.104,21.736,-16.964,0,0,0,0,0,5.000
62314,246,-854,8881,-845.743,-544.557,8003.343,1002.457,554.798,1452.969,123.714,-201.143,355.854,82.397,-137.692,-85.481,0,0,0,0,0,5.000
62414,56,-521,7404,-826.500,-558.143,7975.057,1006.645,542.269,1445.067,192.429,-135.858,-282.856,41.878,-125.286,-79.019,0,0,0,0,0,5.000
62514,-724,-340,9801,-829.443,-567.243,8016.657,1006.040,533.110,1455.083,-29.429,-91.000,416.001,-6.052,-91.593,100.160,0,0,0,0,0,5.000
62614,-933,-1185,9654,-839.229,-580.843,8048.929,1003.665,536.542,1465.948,-97.857,-136.000,322.715,-23.745,34.318,108.650,0,0,0,0,0,5.000
62714,489,-445,6565,-819.829,-587.471,8016.000,1015.951,531.937,1473.005,194.000,-66.286,-329.287,122.863,-46.051,70.575,0,0,0,0,0,5.000
62814,180,66,5712,-792.486,-581.357,7941.014,1016.736,536.930,1454.667,273.428,61.143,-749.858,7.845,49.929,-183.381,0,0,0,0,0,5.000
62914,-1215,-1095,8798,-795.700,-604.986,7967.414,1017.711,522.424,1453.211,-32.143,-236.286,263.999,9.745,-145.058,-14.564,0,0,0,0,0,5.000
63014,101,-36,8835,-770.157,-599.571,7997.214,1017.458,526.314,1449.303,255.428,54.143,298.003,-2.527,38.904,-39.078,0,0,0,0,0,5.000
63114,557,-444,10075,-717.900,-589.343,8000.243,989.969,522.265,1453.414,522.571,102.286,30.283,-274.883,-40.491,41.112,0,0,0,0,0,5.000
63214,-444,-102,8848,-704.414,-571.629,8027.971,987.175,517.443,1450.805,134.857,177.142,277.285,-27.944,-48.221,-26.086,0,0,0,0,0,5.000
63314,-792,-265,7931,-728.957,-577.000,7969.000,967.495,512.255,1367.246,-245.428,-53.714,-589.712,-196.799,-51.886,-835.594,0,0,0,0,0,5.000
63414,-338,577,8432,-744.914,-556.871,7994.014,951.573,529.240,1359.448,-159.572,201.286,250.142,-159.222,169.856,-77.977,0,0,0,0,0,5.000
63514,-193,-804,7155,-740.514,-558.729,7994.971,953.401,529.876,1358.833,44.000,-18.572,9.570,18.280,6.355,-6.147,0,0,0,0,0,5.000
63614,194,307,5756,-740.700,-563.386,8003.686,953.218,520.735,1342.391,-1.857,-46.572,87.144,-1.833,-91.408,-164.423,0,0,0,0,0,5.000
63714,-706,132,6612,-739.700,-556.471,7963.000,953.217,526.675,1340.794,10.000,69.143,-406.855,-0.008,59.402,-15.969,0,0,0,0,0,5.000
63814,-313,102,7592,-744.443,-545.443,7949.471,950.251,532.236,1339.692,-47.429,110.286,-135.288,-29.657,55.607,-11.028,0,0,0,0,0,5.000
63914,179,-392,10639,-725.557,-560.429,7984.029,955.266,512.573,1376.906,188.857,-149.857,345.576,50.152,-196.624,372.146,0,0,0,0,0,5.000
64014,705,250,8147,-697.586,-558.614,8013.500,967.994,515.207,1357.869,279.714,18.143,294.712,127.278,26.338,-190.370,0,0,0,0,0,5.000
64114,-109,-644,7130,-690.871,-576.114,8004.900,970.420,496.672,1361.526,67.143,-175.000,-86.001,24.263,-185.351,36.570,0,0,0,0,0,5.000
64214,-1810,-470,8450,-705.829,-572.943,8012.057,979.444,496.631,1362.530,-149.572,31.714,71.572,90.232,-0.413,10.038,0,0,0,0,0,5.000
64314,-5,-118,6882,-697.229,-563.929,7984.014,982.910,499.074,1365.296,86.000,90.143,-280.430,34.668,24.432,27.661,0,0,0,0,0,5.000
64414,-1160,-1624,9892,-710.586,-587.329,8010.229,982.755,509.715,1383.935,-133.571,-234.000,262.144,-1.550,106.411,186.389,0,0,0,0,0,5.000
64514,-842,-318,9930,-706.571,-593.343,8044.900,981.636,503.986,1401.088,40.143,-60.143,346.714,-11.195,-57.294,171.534,0,0,0,0,0,5.000
64614,685,-628,9498,-697.743,-599.100,8090.886,991.285,502.043,1395.188,88.286,-57.571,459.858,96.492,-19.425,-59.004,0,0,0,0,0,5.000
64714,-1845,-1460,6494,-700.971,-606.229,8083.157,994.643,510.601,1402.495,-32.286,-71.286,-77.285,33.576,85.578,73.069,0,0,0,0,0,5.000
64814,-1246,-1455,5335,-683.971,-615.514,8034.743,974.815,519.956,1437.593,170.000,-92.857,-484.146,-198.278,93.551,350.977,0,0,0,0,0,5.000
64914,-322,-1147,5426,-686.300,-627.686,8003.086,973.752,522.278,1469.928,-23.286,-121.714,-316.567,-10.628,23.217,323.356,0,0,0,0,0,5.000
65014,-1080,-1633,7930,-681.886,-653.986,8006.214,971.254,525.874,1469.536,44.142,-263.000,31.284,-24.984,35.963,-3.921,0,0,0,0,0,5.000
65114,484,-764,8250,-655.871,-650.371,8000.386,977.724,524.234,1467.747,260.143,36.143,-58.286,64.705,-16.406,-17.886,0,0,0,0,0,5.000
65214,940,309,7515,-626.871,-635.229,8006.886,994.381,536.279,1464.573,290.000,151.428,65.000,166.570,120.457,-31.749,0,0,0,0,0,5.000
65314,926,-792,9493,-580.157,-631.243,8025.957,989.413,534.058,1475.070,467.142,39.857,190.713,-49.678,-22.213,104.978,0,0,0,0,0,5.000
65414,-284,-181,11874,-569.186,-614.614,8067.600,988.378,529.679,1540.518,109.714,166.286,416.431,-10.356,-43.793,654.480,0,0,0,0,0,5.000
65514,87,-229,6070,-556.429,-610.557,8026.257,990.999,531.526,1554.675,127.571,40.571,-413.428,26.207,18.472,141.566,0,0,0,0,0,5.000
65614,-229,206,3021,-549.214,-603.500,8001.671,991.518,538.989,1618.707,72.143,70.571,-245.859,5.190,74.627,640.325,0,0,0,0,0,5.000
65714,-1047,-1144,11044,-552.400,-613.614,8058.929,992.753,542.383,1654.037,-31.857,-101.143,572.573,12.353,33.944,353.297,0,0,0,0,0,5.000
65814,-1349,-535,12984,-543.886,-608.371,8108.071,983.283,541.343,1745.977,85.143,52.429,491.426,-94.697,-10.403,919.401,0,0,0,0,0,5.000
65914,2125,-697,5135,-513.029,-601.543,8069.943,1031.480,537.151,1780.993,308.572,68.286,-381.284,481.968,-41.920,350.157,0,0,0,0,0,5.000
66014,-358,-620,4498,-524.829,-601.914,8046.886,1024.893,537.154,1816.289,-118.000,-3.715,-230.571,-65.867,0.035,352.965,0,0,0,0,0,5.000
66114,2468,-248,5741,-469.171,-599.429,7993.414,1078.709,538.382,1828.251,556.571,24.857,-534.717,538.156,12.281,119.619,0,0,1,0,0,5.000
66214,-2300,-595,10889,-489.243,-608.457,8047.229,1099.320,532.905,1857.023,-200.714,-90.286,538.145,206.111,-54.771,287.721,0,0,0,0,0,5.000
66314,-19,-366,8413,-488.200,-597.114,8040.143,1099.731,529.484,1854.667,10.428,113.429,-70.854,4.109,-34.212,-23.569,0,0,0,0,0,5.000
66414,-431,-17,7217,-490.171,-593.086,8037.700,1099.503,532.799,1855.636,-19.714,40.286,-24.429,-2.280,33.152,9.696,0,0,0,0,0,5.000
66514,316,161,5255,-455.914,-583.700,7995.071,1086.655,540.163,1884.571,342.571,93.857,-426.289,-128.481,73.635,289.353,0,0,0,0,0,5.000
66614,-629,-1103,7489,-437.486,-585.957,7984.543,1072.533,541.995,1885.310,184.286,-22.571,-105.283,-141.218,18.321,7.390,0,0,0,0,0,5.000
66714,1021,-306,7958,-414.457,-579.414,7984.943,1086.208,542.570,1885.302,230.286,65.428,3.999,136.752,5.753,-0.084,0,0,0,0,0,5.000
66814,-24,-266,7950,-406.700,-570.200,7977.386,1087.030,542.338,1884.366,77.571,92.143,-75.571,8.215,-2.326,-9.355,0,0,0,0,0,5.000
66914,3737,39,9735,-323.529,-558.629,8028.429,1174.635,546.555,1882.892,831.714,115.714,510.430,876.051,42.170,-14.746,0,0,0,0,0,5.000
67014,473,789,4873,-290.957,-527.829,7951.957,1164.616,560.698,1900.706,325.714,308.000,-764.717,-100.183,141.435,178.142,0,0,0,0,0,5.000
67114,-1030,-198,7462,-310.957,-520.800,7938.143,1165.115,561.704,1900.703,-200.000,70.286,-138.140,4.985,10.060,-0.033,0,0,0,0,0,5.000
67214,212,-561,9004,-282.871,-517.614,7964.157,1153.630,560.834,1902.650,280.857,31.857,260.142,-114.846,-8.701,19.471,0,0,0,0,0,5.000
67314,-525,507,7830,-294.829,-507.686,7964.914,1151.739,572.610,1902.586,-119.572,99.286,7.568,-18.916,117.756,-0.640,0,0,0,0,0,5.000
67414,-1061,133,8224,-298.071,-488.343,7959.443,1153.570,571.054,1901.282,-32.429,193.428,-54.712,18.318,-15.556,-13.041,0,0,0,0,0,5.000
67514,-92,19,6191,-291.029,-486.457,7945.529,1153.302,572.506,1910.586,70.429,18.857,-139.141,-2.684,14.525,93.043,0,0,0,0,0,5.000
67614,-1148,-402,7246,-300.529,-480.757,7942.257,1157.575,571.331,1911.585,-95.000,57.000,-32.715,42.732,-11.750,9.985,0,0,0,0,0,5.000
67714,-153,268,8007,-280.671,-470.043,7907.229,1147.974,578.199,1887.460,198.571,107.143,-350.288,-96.016,68.674,-241.251,0,0,0,0,0,5.000
67814,-2171,-178,10065,-309.771,-451.214,7909.000,1169.503,565.810,1889.425,-291.000,188.286,17.715,215.291,-123.889,19.650,0,0,0,0,0,5.000
67914,678,281,8746,-273.600,-427.743,7921.414,1160.302,561.604,1892.027,361.714,234.714,124.141,-92.007,-42.063,26.021,0,0,0,0,0,5.000
68014,839,-142,7747,-243.029,-409.714,7924.143,1161.021,550.113,1891.635,305.714,180.286,27.290,7.195,-114.904,-3.912,0,0,0,0,0,5.000
68114,-204,262,7342,-202.286,-388.414,7927.529,1110.537,546.834,1890.378,407.428,213.000,33.857,-504.846,-32.791,-12.573,0,0,0,0,0,5.000
68214,-571,-874,10095,-183.100,-378.457,7888.943,1092.250,531.336,1816.742,191.857,99.571,-385.859,-182.869,-154.979,-736.356,0,0,0,0,0,5.000
68314,-1530,-756,8136,-172.129,-391.529,7894.357,1074.667,529.204,1816.906,109.714,-130.714,54.141,-175.831,-21.321,1.636,0,0,0,0,0,5.000
68414,-1497,-1578,9245,-197.186,-400.286,7944.171,1084.770,543.500,1805.416,-250.571,-87.571,498.145,101.030,142.960,-114.901,0,0,0,0,0,5.000
68514,-972,-768,8302,-198.014,-404.886,7966.571,1085.339,545.228,1799.981,-8.286,-46.000,223.999,5.691,17.274,-54.348,0,0,0,0,0,5.000
68614,-206,118,7519,-225.029,-405.100,7936.443,1061.404,545.019,1789.540,-270.143,-2.143,-301.284,-239.348,-2.086,-104.415,0,0,0,0,0,5.000
68714,-1080,-854,9059,-273.671,-404.071,7962.529,1020.666,544.102,1792.402,-486.429,10.286,260.859,-407.377,-9.169,28.623,0,0,0,0,0,5.000
68814,-1285,2,9934,-300.771,-393.343,7979.314,1021.974,544.599,1805.238,-271.000,107.286,167.856,13.076,4.969,128.362,0,0,0,0,0,5.000
68914,345,-490,6994,-276.014,-394.886,7969.714,1016.311,544.718,1808.662,247.571,-15.428,-96.001,-56.627,1.186,34.242,0,0,0,0,0,5.000
69014,-912,-356,8376,-286.057,-386.186,7970.786,1019.069,540.389,1808.880,-100.428,87.000,10.713,27.577,-43.290,2.180,0,0,0,0,0,5.000
69114,1571,364,9407,-239.057,-373.414,8029.414,1027.729,547.358,1787.849,470.000,127.714,586.284,86.595,69.695,-210.309,0,0,0,0,0,5.000
69214,299,855,5642,-218.157,-360.757,7996.872,1023.574,565.087,1810.138,209.000,126.571,-325.425,-41.548,177.285,222.888,0,0,0,0,0,5.000
69314,-1396,-1107,7842,-241.614,-364.371,7982.029,1031.453,569.025,1807.085,-234.571,-36.143,-148.428,78.787,39.387,-30.531,0,0,0,0,0,5.000
69414,-682,308,6669,-252.157,-352.529,7971.529,1032.128,574.245,1812.540,-105.429,118.429,-105.000,6.757,52.198,54.553,0,0,0,0,0,5.000
69514,-473,368,7513,-248.571,-342.414,7938.843,1030.918,580.577,1799.840,35.857,101.143,-326.860,-12.102,63.317,-127.007,0,0,0,0,0,5.000
69614,-881,-111,7799,-247.829,-327.071,7912.343,1030.443,572.239,1788.009,7.429,153.428,-265.000,-4.750,-83.384,-118.307,0,0,0,0,0,5.000
69714,-555,68,6600,-262.743,-319.743,7912.843,1027.221,573.964,1787.637,-149.143,73.286,5.000,-32.222,17.252,-3.724,0,0,0,0,0,5.000
69814,-1722,317,7815,-289.914,-316.157,7942.886,1040.223,577.138,1767.960,-271.714,35.857,300.430,130.024,31.740,-196.763,0,0,0,0,0,5.000
69914,-1867,-367,10208,-299.229,-305.757,7963.029,1051.325,569.518,1785.533,-93.143,104.000,201.431,111.013,-76.195,175.728,0,0,0,0,0,5.000
70014,-388,20,8781,-306.214,-304.957,7962.257,1050.266,569.936,1785.168,-69.857,8.000,-7.715,-10.585,4.175,-3.654,0,0,0,0,0,5.000
70114,-1054,-1319,9472,-329.229,-317.457,7953.643,1048.748,582.309,1776.385,-230.143,-125.000,-86.143,-15.178,123.736,-87.827,0,0,0,0,0,5.000
70214,-2679,-1083,5736,-361.157,-331.471,7909.186,1085.146,588.725,1792.316,-319.286,-140.143,-444.575,363.981,64.154,159.313,0,0,0,0,0,5.000
70314,1171,185,10124,-333.114,-325.043,7940.514,1098.927,591.864,1811.487,280.428,64.286,313.286,137.805,31.392,191.711,0,0,0,0,0,5.000
70414,1385,-541,7192,-308.500,-341.014,7922.800,1117.678,582.314,1812.657,246.143,-159.714,-177.144,187.513,-95.496,11.696,0,0,0,0,0,5.000
70514,-2150,-987,8481,-336.457,-343.629,7941.743,1138.717,584.793,1811.462,-279.572,-26.143,189.429,210.388,24.782,-11.946,0,0,0,0,0,5.000
70614,-567,-612,8014,-347.329,-356.757,7974.000,1137.233,580.337,1792.256,-108.714,-131.286,322.573,-14.844,-44.552,-192.065,0,0,0,0,0,5.000
70714,198,-440,6360,-334.414,-364.929,7970.400,1138.219,577.418,1795.239,129.143,-81.714,-36.001,9.860,-29.197,29.827,0,0,0,0,0,5.000
70814,36,-617,7382,-329.429,-375.200,7967.400,1139.066,575.412,1796.044,49.857,-102.715,-30.000,8.470,-20.058,8.053,0,0,0,0,0,5.000
70914,-633,-157,6691,-341.029,-371.843,7911.000,1137.963,575.989,1773.105,-116.000,33.571,-563.999,-11.027,5.774,-229.385,0,0,0,0,0,5.000
71014,-1426,-1166,9127,-371.471,-392.071,7925.000,1138.077,578.654,1778.774,-304.429,-202.286,140.000,1.135,26.644,56.682,0,0,0,0,0,5.000
71114,-716,-833,9264,-380.143,-394.771,7955.486,1138.356,580.262,1783.168,-86.714,-27.000,304.858,2.795,16.080,43.948,0,0,0,0,0,5.000
71214,-1324,-1044,9212,-373.200,-402.971,7966.372,1131.073,585.301,1788.472,69.428,-82.000,108.857,-72.831,50.389,53.036,0,0,0,0,0,5.000
71314,-571,-1166,9241,-381.286,-417.943,8000.071,1130.435,591.194,1789.947,-80.857,-149.714,336.997,-6.382,58.931,14.746,0,0,0,0,0,5.000
71414,-1243,-624,9089,-382.471,-403.657,7988.600,1131.294,573.701,1780.332,-11.857,142.857,-114.712,8.595,-174.928,-96.144,0,0,0,0,0,5.000
71514,-635,-1034,9477,-379.514,-413.886,7982.128,1130.359,578.446,1774.076,29.572,-102.286,-64.717,-9.351,47.449,-62.565,0,0,0,0,0,5.000
71614,875,-431,5552,-376.800,-411.071,7925.757,1133.137,577.876,1787.653,27.143,28.143,-563.711,27.777,-5.697,135.778,0,0,0,0,0,5.000
71714,-846,-235,8108,-362.529,-393.571,7948.814,1120.779,564.234,1779.428,142.714,175.000,230.571,-123.577,-136.425,-82.258,0,0,0,0,0,5.000
71814,-826,-335,9054,-356.529,-377.571,8001.943,1117.152,549.598,1755.958,60.000,160.000,531.284,-36.273,-146.357,-234.694,0,0,0,0,0,5.000
71914,-995,317,7556,-366.143,-356.657,8032.372,1119.707,547.773,1729.309,-96.143,209.143,304.287,25.547,-18.253,-266.488,0,0,0,0,0,5.000
72014,765,925,4326,-339.786,-320.114,7980.886,1124.298,546.730,1784.365,263.571,365.428,-514.858,45.917,-10.427,550.552,0,0,0,0,0,5.000
72114,624,-577,11526,-337.786,-317.443,8027.686,1125.885,545.009,1833.105,20.000,26.714,467.998,15.868,-17.212,487.400,0,0,0,0,0,5.000
72214,843,-166,4690,-339.171,-324.229,7987.329,1124.370,540.102,1874.575,-13.857,-67.857,-403.569,-15.148,-49.070,414.708,0,0,0,0,0,5.000
72314,-3669,-215,7481,-404.814,-315.986,7958.586,1181.283,537.295,1866.677,-656.429,82.429,-287.427,569.128,-28.062,-78.982,0,0,0,0,0,5.000
72414,-1717,82,10950,-425.286,-312.229,7945.386,1191.386,539.143,1842.048,-204.714,37.571,-132.002,101.025,18.472,-246.296,0,0,0,0,0,5.000
72514,-1214,6,8624,-443.871,-308.871,7981.872,1193.395,540.381,1829.793,-185.857,33.571,364.858,20.094,12.380,-122.546,0,0,0,0,0,5.000
72614,876,1023,6936,-428.086,-297.200,8037.800,1203.399,559.847,1734.666,157.857,116.714,559.282,100.043,194.667,-951.270,0,0,0,0,0,5.000
72714,-2062,-346,8600,-442.586,-285.800,8002.886,1216.810,550.536,1698.016,-145.000,114.000,-349.141,134.102,-93.119,-366.497,0,0,0,0,0,5.000
72814,-597,-321,8638,-431.843,-282.743,7940.800,1212.070,549.737,1590.823,107.429,30.571,-620.859,-47.394,-7.986,-1071.937,0,0,0,0,0,5.000
72914,46,665,6813,-461.543,-263.286,7964.771,1173.926,558.759,1560.720,-297.000,194.572,239.717,-381.444,90.225,-301.024,0,0,0,0,0,5.000
73014,-779,-87,7117,-467.557,-255.671,8002.186,1174.458,557.477,1507.655,-60.143,76.143,374.141,5.322,-12.827,-530.656,0,0,0,0,0,5.000
73114,-1110,-661,9507,-518.671,-261.571,8055.986,1122.287,559.546,1493.129,-511.143,-59.000,538.003,-521.708,20.693,-145.254,0,0,0,0,0,5.000
73214,199,-426,7962,-482.971,-259.157,8014.171,1104.663,558.466,1453.670,357.000,24.143,-418.145,-176.239,-10.803,-394.592,0,0,0,0,0,5.000
73314,-1593,-588,8448,-505.457,-262.329,8014.671,1110.992,559.692,1453.813,-224.857,-31.714,5.000,63.284,12.267,1.432,0,0,0,0,0,5.000
73414,-1334,234,9702,-518.357,-258.743,8050.171,1115.286,562.052,1464.205,-129.000,35.857,355.000,42.948,23.594,103.916,0,0,0,0,0,5.000
73514,-1987,-551,7605,-551.257,-268.914,8083.743,1124.122,560.805,1426.179,-329.000,-101.714,335.713,88.353,-12.471,-380.261,0,0,0,0,0,5.000
73614,-969,-751,8945,-556.114,-263.886,8104.543,1125.181,554.850,1427.969,-48.571,50.286,208.003,10.593,-59.551,17.905,0,0,0,0,0,5.000
73714,-70,-532,8178,-571.700,-267.114,8107.686,1110.690,555.742,1427.885,-155.858,-32.286,31.426,-144.907,8.925,-0.839,0,0,0,0,0,5.000
73814,-1213,-611,8589,-588.686,-272.043,8116.814,1111.276,557.238,1428.890,-169.857,-49.286,91.289,5.856,14.961,10.049,0,0,0,0,0,5.000
73914,-140,-266,7852,-644.071,-276.400,8089.914,983.583,555.980,1415.838,-553.857,-43.571,-269.004,-1276.935,-12.581,-130.520,0,0,0,0,0,5.000
74014,-731,-259,8284,-661.271,-291.371,8138.643,974.382,540.998,1361.957,-172.000,-149.714,487.290,-92.004,-149.822,-538.817,0,0,0,0,0,5.000
74114,-463,-848,8065,-653.171,-300.657,8147.257,973.640,544.880,1359.554,81.000,-92.857,86.143,-7.424,38.820,-24.021,0,0,0,0,0,5.000
74214,-1593,-1213,8291,-678.957,-309.971,8137.071,974.286,554.734,1355.763,-257.857,-93.143,-101.860,6.469,98.543,-37.913,0,0,0,0,0,5.000
74314,-2880,-1291,7980,-712.600,-335.657,8139.214,1008.450,557.928,1355.395,-336.428,-256.857,21.431,341.639,31.943,-3.685,0,0,0,0,0,5.000
74414,-455,-1370,9826,-703.943,-357.129,8162.100,1008.023,568.304,1370.078,86.571,-214.714,228.857,-4.269,103.754,146.836,0,0,0,0,0,5.000
74514,-597,-751,7333,-711.157,-368.129,8178.414,1005.422,568.369,1353.205,-72.143,-110.000,163.140,-26.016,0.653,-168.728,0,0,0,0,0,5.000
74614,-961,-790,8044,-708.486,-373.671,8189.814,1004.506,570.560,1348.656,26.714,-55.428,114.004,-9.163,21.910,-45.494,0,0,0,0,0,5.000
74714,-1133,-917,9633,-722.486,-390.600,8213.043,1003.495,568.848,1359.269,-140.000,-169.286,232.285,-10.109,-17.126,106.125,0,0,0,0,0,5.000
74814,-630,-782,7770,-700.471,-399.229,8180.257,988.264,570.137,1341.769,220.143,-86.286,-327.856,-152.310,12.891,-174.998,0,0,0,0,0,5.000
74914,-1761,-1836,8471,-735.314,-429.471,8176.329,982.025,589.085,1340.508,-348.428,-302.429,-39.287,-62.388,189.484,-12.604,0,0,0,0,0,5.000
75014,-993,-1572,8359,-761.486,-449.900,8185.071,963.966,603.383,1339.675,-261.714,-204.286,87.427,-180.592,142.985,-8.331,0,0,0,0,0,5.000
75114,-255,-1151,7418,-762.214,-470.086,8186.157,963.563,602.865,1339.022,-7.286,-201.857,10.859,-4.023,-5.186,-6.531,0,0,0,0,0,5.000
75214,-976,-991,7668,-768.000,-471.757,8151.486,963.614,604.143,1320.440,-57.857,-16.714,-346.714,0.501,12.783,-185.823,0,0,0,0,0,5.000
75314,775,-1260,4362,-735.071,-478.957,8097.571,976.312,610.458,1394.918,329.286,-72.000,-539.146,126.981,63.150,744.784,0,0,0,0,0,5.000
75414,-1434,-180,8068,-734.171,-458.986,8080.757,975.638,596.893,1388.063,9.000,199.714,-168.140,-6.740,-135.650,-68.556,0,0,0,0,0,5.000
75514,-2109,-751,9211,-750.414,-458.743,8093.743,988.837,596.771,1394.310,-162.429,2.429,129.854,131.996,-1.223,62.469,0,0,0,0,0,5.000
75614,330,-632,8615,-742.757,-469.457,8109.400,995.079,593.041,1393.922,76.572,-107.143,156.572,62.416,-37.300,-3.882,0,0,0,0,0,5.000
75714,-1151,-1507,9143,-743.771,-478.786,8110.600,995.458,604.050,1394.775,-10.143,-93.286,12.002,3.794,110.092,8.530,0,0,0,0,0,5.000
75814,-1802,-1170,9249,-751.157,-495.529,8100.814,1001.347,606.728,1384.311,-73.857,-167.429,-97.856,58.889,26.784,-104.637,0,0,0,0,0,5.000
75914,-529,-840,8093,-763.643,-500.529,8116.514,993.015,608.103,1377.886,-124.857,-50.000,156.997,-83.318,13.745,-64.246,0,0,0,0,0,5.000
76014,-1212,-511,6406,-767.929,-502.743,8088.372,994.293,607.855,1392.341,-42.857,-22.143,-281.426,12.778,-2.482,144.552,0,0,0,0,0,5.000
76114,-801,308,6476,-801.814,-503.543,8046.500,953.591,606.749,1396.124,-338.857,-8.000,-418.716,-407.026,-11.053,37.821,0,0,0,0,0,5.000
76214,-153,-1496,6716,-808.271,-537.129,8061.843,947.626,595.585,1375.362,-64.572,-335.858,153.428,-59.642,-111.644,-207.618,0,0,0,0,0,5.000
76314,-52,-801,7611,-789.071,-532.757,8058.543,949.138,592.501,1376.162,192.000,43.715,-32.998,15.118,-30.837,8.003,0,0,0,0,0,5.000
76414,-877,-694,9305,-791.857,-547.071,8096.200,949.106,584.060,1373.687,-27.857,-143.143,376.572,-0.323,-84.412,-24.752,0,0,0,0,0,5.000
76514,-1502,-951,8223,-806.557,-565.914,8106.343,952.018,575.447,1371.963,-147.000,-188.429,101.426,29.120,-86.127,-17.234,0,0,0,0,0,5.000
76614,-1543,-1825,9042,-816.014,-590.400,8124.100,955.990,591.803,1375.909,-94.572,-244.857,177.573,39.723,163.556,39.456,0,0,0,0,0,5.000
76714,828,834,7294,-796.257,-579.457,8134.014,975.277,610.658,1367.365,197.571,109.429,99.141,192.866,188.548,-85.439,0,0,0,0,0,5.000
76814,-1658,-112,6708,-795.343,-585.586,8118.200,974.438,603.744,1377.328,9.143,-61.285,-158.140,-8.386,-69.140,99.633,0,0,0,0,0,5.000
76914,-249,-337,8502,-772.229,-585.157,8093.829,967.911,603.909,1355.048,231.143,4.285,-243.716,-65.265,1.656,-222.806,0,0,0,0,0,5.000
77014,2095,-652,7335,-736.757,-594.757,8073.171,1025.148,599.539,1355.436,354.714,-96.000,-206.572,572.366,-43.707,3.887,0,0,1,0,0,5.000
77114,-278,-540,7562,-725.671,-583.629,8045.886,1025.853,593.188,1346.196,110.857,111.285,-272.856,7.048,-63.504,-92.406,0,0,0,0,0,5.000
77214,-1463,-715,11472,-708.300,-578.371,8127.829,1002.663,590.363,1377.314,173.715,52.572,819.429,-231.903,-28.250,311.188,0,0,0,0,0,5.000
77314,-707,-675,7676,-735.129,-590.657,8092.857,976.810,583.255,1357.116,-268.286,-122.858,-349.717,-258.523,-71.083,-201.982,0,0,0,0,0,5.000
77414,-905,-892,8790,-767.843,-595.671,8115.686,943.020,584.314,1355.209,-327.142,-50.143,228.286,-337.902,10.594,-19.070,0,0,0,0,0,5.000
77514,-903,-900,8491,-750.029,-594.429,8115.829,928.407,583.573,1355.249,178.143,12.429,1.431,-146.131,-7.416,0.393,0,0,0,0,0,5.000
77614,-466,-851,8768,-748.586,-597.843,8126.600,928.769,584.364,1357.391,14.429,-34.142,107.715,3.619,7.913,21.423,0,0,0,0,0,5.000
77714,-480,-525,7003,-758.271,-599.057,8135.786,922.360,584.123,1347.545,-96.857,-12.143,91.855,-64.091,-2.409,-98.459,0,0,0,0,0,5.000
77814,-678,-778,8027,-768.471,-601.357,8145.000,917.455,584.506,1344.561,-102.000,-23.000,92.144,-49.049,3.829,-29.841,0,0,0,0,0,5.000
77914,-418,-745,8401,-765.400,-609.757,8169.429,918.263,582.281,1333.410,30.714,-84.000,244.287,8.079,-22.254,-111.506,0,0,0,0,0,5.000
78014,-699,-611,8226,-755.014,-601.829,8156.557,914.837,578.418,1328.444,103.857,79.286,-128.716,-34.254,-38.622,-49.663,0,0,0,0,0,5.000
78114,-591,-880,7969,-753.229,-602.500,8138.057,915.034,578.713,1321.894,17.857,-6.714,-185.000,1.965,2.950,-65.500,0,0,0,0,0,5.000
78214,-860,-518,8271,-746.600,-594.986,8124.614,912.552,576.342,1315.674,66.286,75.143,-134.429,-24.817,-23.713,-62.197,0,0,0,0,0,5.000
78314,-441,-475,8192,-744.743,-585.114,8109.628,913.040,572.381,1308.829,18.571,98.715,-149.858,4.877,-39.606,-68.447,0,0,0,0,0,5.000
78414,-515,-851,8237,-734.343,-588.357,8097.457,911.450,573.235,1303.616,104.000,-32.429,-121.714,-15.898,8.535,-52.131,0,0,0,0,0,5.000
78514,-274,-688,8028,-729.186,-583.414,8076.757,913.018,570.858,1293.007,51.571,49.428,-206.997,15.674,-23.771,-106.089,0,0,0,0,0,5.000
78614,-379,-707,7577,-747.100,-587.357,8105.686,893.459,570.745,1258.386,-179.142,-39.428,289.282,-195.585,-1.133,-346.211,0,0,0,0,0,5.000
78714,-353,-720,7451,-740.057,-594.286,8096.300,894.594,569.367,1260.782,70.428,-69.286,-93.857,11.351,-13.773,23.958,0,0,0,0,0,5.000
78814,-716,-842,8175,-738.486,-601.529,8083.743,894.538,569.248,1255.547,15.714,-72.429,-125.571,-0.558,-1.196,-52.345,0,0,0,0,0,5.000
78914,-305,-637,8117,-728.629,-615.157,8091.757,895.459,558.411,1253.943,98.571,-136.286,80.146,9.203,-108.370,-16.049,0,0,0,0,0,5.000
79014,-770,-965,7869,-750.557,-642.157,8142.372,877.223,528.162,1169.587,-219.285,-270.000,506.143,-182.360,-302.488,-843.553,0,0,0,0,0,5.000
79114,-690,-1092,8716,-769.329,-649.514,8102.229,861.526,530.783,1098.848,-187.714,-73.571,-401.431,-156.962,26.215,-707.391,0,0,0,0,0,5.000
79214,-414,-896,8064,-787.286,-659.943,8150.429,840.578,528.347,1019.231,-179.572,-104.286,482.002,-209.482,-24.366,-796.169,0,0,0,0,0,5.000
79314,-636,-993,8048,-743.957,-671.057,8158.529,765.760,527.051,1016.127,433.286,-111.143,81.001,-748.179,-12.953,-31.041,0,0,0,0,0,5.000
79414,-409,-979,7696,-725.271,-686.214,8112.043,757.705,520.391,960.256,186.857,-151.572,-464.858,-80.555,-66.604,-558.715,0,0,0,0,0,5.000
79514,-366,-991,8114,-713.157,-700.457,8104.757,756.572,514.865,958.276,121.143,-142.429,-72.856,-11.326,-55.261,-19.793,0,0,0,0,0,5.000
79614,-1147,-1060,7748,-742.057,-730.214,8116.357,733.606,472.879,948.927,-289.000,-297.571,115.996,-229.662,-419.863,-93.491,0,0,0,0,0,5.000
79714,-786,-1155,8497,-723.829,-741.771,8114.886,716.229,473.233,948.256,182.286,-115.571,-14.712,-173.772,3.545,-6.715,0,0,0,0,0,5.000
79814,-548,-916,7879,-723.129,-750.271,8104.043,716.376,470.937,946.550,7.000,-85.000,-108.428,1.475,-22.961,-17.056,0,0,0,0,0,5.000
79914,-212,-1036,7782,-726.814,-774.571,8117.886,713.066,440.163,934.578,-36.857,-243.000,138.428,-33.105,-307.742,-119.723,0,0,0,0,0,5.000
80014,-782,-1153,8836,-726.857,-789.800,8142.443,713.069,434.515,930.532,-0.428,-152.286,245.571,0.033,-56.475,-40.464,0,0,0,0,0,5.000
80114,-62,-986,7426,-711.886,-794.443,8112.714,715.864,434.850,919.640,149.714,-46.429,-297.285,27.947,3.352,-108.916,0,0,0,0,0,5.000
80214,-200,-1209,8249,-717.586,-805.629,8116.814,710.154,435.299,919.599,-57.000,-111.857,41.001,-57.098,4.490,-0.414,0,0,0,0,0,5.000
80314,-647,-1455,7874,-704.071,-818.014,8108.614,702.324,441.225,919.168,135.143,-123.857,-82.002,-78.297,59.257,-4.305,0,0,0,0,0,5.000
80414,-1020,-1373,8062,-699.586,-840.971,8085.186,699.283,427.484,898.934,44.857,-229.572,-234.287,-30.416,-137.415,-202.341,0,0,0,0,0,5.000
80514,-775,-1208,7629,-682.271,-850.357,8085.529,681.983,428.226,898.755,173.143,-93.857,3.433,-173.001,7.422,-1.786,0,0,0,0,0,5.000
80614,-546,-1466,7760,-676.229,-860.571,8068.600,681.289,434.219,893.552,60.428,-102.143,-169.287,-6.938,59.936,-52.030,0,0,0,0,0,5.000
80714,-656,-1227,8043,-684.600,-870.500,8066.671,677.377,434.538,893.460,-83.714,-99.286,-19.287,-39.115,3.190,-0.926,0,0,0,0,0,5.000
80814,-347,-1393,8115,-672.229,-881.671,8059.900,675.520,437.764,891.269,123.714,-111.714,-67.715,-18.579,32.253,-21.908,0,0,0,0,0,5.000
80914,-631,-1417,8128,-679.243,-898.114,8063.843,672.499,435.942,890.951,-70.143,-164.428,39.429,-30.203,-18.214,-3.181,0,0,0,0,0,5.000
81014,-438,-1581,8384,-675.057,-917.000,8065.271,673.076,436.481,891.383,41.857,-188.857,14.287,5.764,5.387,4.319,0,0,0,0,0,5.000
81114,-578,-1329,7994,-676.700,-923.871,8064.257,672.696,439.119,891.423,-16.429,-68.714,-10.142,-3.795,26.378,0.402,0,0,0,0,0,5.000
81214,-519,-719,7185,-661.357,-916.814,8048.457,663.811,438.384,897.048,153.429,70.571,-158.003,-88.846,-7.344,56.248,0,0,0,0,0,5.000
81314,-368,-721,7762,-625.471,-908.671,8045.343,608.496,436.649,897.658,358.857,81.428,-31.143,-553.152,-17.357,6.105,0,0,0,0,0,5.000
81414,-586,-743,8030,-627.343,-899.714,8019.686,608.170,433.513,871.688,-18.714,89.572,-256.572,-3.259,-31.355,-259.706,0,0,0,0,0,5.000
81514,-530,-907,8120,-626.386,-901.943,8030.929,608.270,433.144,867.825,9.571,-22.286,112.432,0.998,-3.694,-38.625,0,0,0,0,0,5.000
81614,-678,-1102,8104,-622.343,-906.400,8031.786,606.972,433.574,867.867,40.429,-44.572,8.569,-12.983,4.302,0.422,0,0,0,0,0,5.000
81714,-522,-1179,8479,-613.614,-910.143,8015.300,603.951,434.779,848.028,87.286,-37.429,-164.858,-30.206,12.045,-198.391,0,0,0,0,0,5.000
81814,-886,-1557,8273,-617.271,-921.214,8022.486,604.814,441.195,848.050,-36.572,-110.714,71.860,8.628,64.161,0.221,0,0,0,0,0,5.000
81914,-545,-1347,8039,-599.900,-914.229,8016.314,588.970,430.394,846.334,173.714,69.857,-61.714,-158.442,-108.005,-17.162,0,0,0,0,0,5.000
82014,-496,-1528,8172,-592.800,-913.600,8013.643,587.181,429.464,845.543,71.000,6.286,-26.714,-17.887,-9.299,-7.910,0,0,0,0,0,5.000
82114,-682,-1413,7908,-598.900,-917.343,8020.643,585.857,432.647,842.606,-61.000,-37.429,70.000,-13.245,31.825,-29.369,0,0,0,0,0,5.000
82214,-347,-1400,7653,-589.914,-923.186,8020.429,584.827,436.348,842.698,89.857,-58.429,-2.144,-10.299,37.012,0.914,0,0,0,0,0,5.000
82314,-636,-1211,7814,-610.071,-922.486,8069.743,561.277,435.846,719.107,-201.571,7.000,493.140,-235.496,-5.020,-1235.908,0,0,0,0,0,5.000
82414,-573,-1487,8229,-597.771,-941.157,8072.043,552.451,431.613,719.355,123.000,-186.714,23.003,-88.258,-42.325,2.484,0,0,0,0,0,5.000
82514,-626,-1664,8518,-576.586,-954.200,8062.143,521.669,439.395,708.296,211.857,-130.428,-98.999,-307.819,77.813,-110.593,0,0,0,0,0,5.000
82614,-710,107,8365,-591.443,-943.643,8058.571,510.325,455.589,706.126,-148.572,105.571,-35.718,-113.448,161.940,-21.696,0,0,0,0,0,5.000
82714,-550,-3,8307,-582.857,-922.157,8046.628,505.875,463.903,694.661,85.858,214.857,-119.429,-44.500,83.139,-114.655,0,0,0,0,0,5.000
82814,-389,183,8162,-562.671,-902.829,8031.100,484.567,481.043,679.595,201.857,193.286,-155.283,-213.073,171.408,-150.656,0,0,0,0,0,5.000
82914,-780,-151,8267,-566.257,-892.986,8033.586,485.233,489.208,680.135,-35.857,98.428,24.858,6.657,81.645,5.400,0,0,0,0,0,5.000
83014,-471,-543,8008,-555.671,-893.443,8056.471,479.074,488.866,651.326,105.857,-4.572,228.853,-61.591,-3.423,-288.088,0,0,0,0,0,5.000
83114,-514,-420,8038,-551.571,-903.843,8078.786,478.184,470.598,622.935,41.000,-104.000,223.145,-8.900,-182.675,-283.907,0,0,0,0,0,5.000
83214,-751,-233,8271,-560.114,-885.800,8101.000,476.325,471.759,601.291,-85.428,180.428,222.144,-18.587,11.611,-216.440,0,0,0,0,0,5.000
83314,-724,158,8212,-569.714,-872.100,8109.586,472.746,487.679,598.518,-96.000,137.000,85.859,-35.789,159.199,-27.732,0,0,0,0,0,5.000
83414,-379,-16,7488,-562.600,-862.414,8083.628,471.815,497.749,585.368,71.143,96.857,-259.575,-9.316,100.699,-131.505,0,0,0,0,0,5.000
83514,-717,-258,8176,-551.386,-852.514,8082.957,458.495,502.755,585.234,112.142,99.000,-6.714,-133.203,50.062,-1.333,0,0,0,0,0,5.000
83614,-606,-33,7793,-538.000,-826.914,8065.114,442.757,498.188,574.667,133.857,256.000,-178.428,-157.378,-45.672,-105.671,0,0,0,0,0,5.000
83714,-694,87,7976,-559.743,-837.586,8074.857,411.402,469.681,567.245,-217.429,-106.714,97.427,-313.544,-285.069,-74.225,0,0,0,0,0,5.000
83814,-409,-131,7713,-541.900,-837.857,8089.214,389.907,469.267,544.739,178.428,-2.714,143.574,-214.957,-4.141,-225.053,0,0,0,0,0,5.000
83914,-637,-417,8047,-547.443,-839.000,8082.714,388.459,468.142,542.485,-55.428,-11.429,-65.000,-14.480,-11.251,-22.543,0,0,0,0,0,5.000
84014,-706,-17,8075,-587.457,-829.929,8093.286,223.401,477.732,534.969,-400.143,90.714,105.713,-1650.576,95.898,-75.157,0,0,0,0,0,5.000
84114,-344,-187,7980,-588.400,-824.886,8099.257,222.229,482.604,531.326,-9.429,50.428,59.717,-11.719,48.720,-36.431,0,0,0,0,0,5.000
84214,-640,-271,8448,-576.643,-818.543,8056.057,195.852,486.905,345.938,117.571,63.429,-432.002,-263.769,43.011,-1853.881,0,0,0,0,0,5.000
84314,-641,-258,8041,-575.700,-812.586,8061.271,195.381,491.157,342.908,9.429,59.572,52.144,-4.715,42.521,-30.303,0,0,0,0,0,5.000
84414,-421,-88,8128,-568.786,-801.100,8051.814,192.142,498.512,331.623,69.143,114.857,-94.570,-32.386,73.544,-112.852,0,0,0,0,0,5.000
84514,-571,-84,7773,-564.043,-789.443,8041.557,187.884,505.553,328.973,47.429,116.571,-102.573,-42.579,70.419,-26.493,0,0,0,0,0,5.000
84614,-648,-96,8235,-566.643,-778.657,8033.943,187.769,512.136,318.059,-26.000,107.857,-76.143,-1.155,65.825,-109.148,0,0,0,0,0,5.000
84714,-531,-22,7409,-567.371,-771.471,8039.743,187.530,519.126,302.528,-7.285,71.857,57.998,-2.388,69.897,-155.301,0,0,0,0,0,5.000
84814,-555,-52,7875,-565.614,-761.100,8037.571,187.061,526.097,303.157,17.571,103.715,-21.714,-4.692,69.714,6.285,0,0,0,0,0,5.000
84914,-650,-159,8078,-568.929,-752.729,8032.957,186.470,530.927,300.032,-33.143,83.714,-46.143,-5.905,48.297,-31.247,0,0,0,0,0,5.000
85014,-778,-195,8052,-570.057,-746.786,8030.471,187.490,534.794,299.142,-11.285,59.429,-24.858,10.201,38.674,-8.902,0,0,0,0,0,5.000
85114,-464,-136,7890,-568.243,-736.157,8029.343,187.893,539.414,299.521,18.143,106.285,-11.284,4.026,46.201,3.786,0,0,0,0,0,5.000
85214,-635,-261,8482,-565.029,-732.486,8032.357,184.773,541.756,302.979,32.143,36.714,30.142,-31.199,23.419,34.585,0,0,0,0,0,5.000
85314,-734,-222,8131,-569.214,-728.871,8031.486,185.234,544.300,302.606,-41.857,36.143,-8.711,4.610,25.437,-3.729,0,0,0,0,0,5.000
85414,-426,-139,8231,-567.943,-718.700,8031.400,185.906,548.558,302.549,12.714,101.714,-0.859,6.720,42.587,-0.574,0,0,0,0,0,5.000
85514,-479,-199,7941,-570.871,-711.714,8030.157,182.842,552.008,302.739,-29.285,69.857,-12.427,-30.641,34.493,1.901,0,0,0,0,0,5.000
85614,-594,-34,8208,-573.943,-702.100,8039.171,181.393,557.836,298.476,-30.715,96.143,90.142,-14.488,58.284,-42.631,0,0,0,0,0,5.000
85714,-465,-32,7838,-575.543,-692.271,8044.700,179.925,563.467,291.021,-16.000,98.286,55.288,-14.679,56.307,-74.547,0,0,0,0,0,5.000
85814,-486,11,7677,-572.257,-680.086,8037.586,179.430,569.290,293.822,32.857,121.857,-71.143,-4.956,58.236,28.014,0,0,0,0,0,5.000
85914,-482,-212,7947,-574.786,-674.014,8035.157,176.875,571.977,293.859,-25.286,60.714,-24.287,-25.551,26.870,0.361,0,0,0,0,0,5.000
86014,-762,-129,8179,-574.671,-662.071,8039.586,176.751,574.499,293.657,1.143,119.429,44.287,-1.237,25.219,-2.016,0,0,0,0,0,5.000
86114,-538,-166,7848,-572.500,-648.843,8027.186,176.254,575.108,282.964,21.714,132.286,-124.004,-4.972,6.089,-106.927,0,0,0,0,0,5.000
86214,-613,-195,8054,-575.343,-638.829,8027.043,175.276,576.818,282.948,-28.428,100.143,-1.426,-9.772,17.097,-0.161,0,0,0,0,0,5.000
86314,-777,-186,8067,-577.357,-627.300,8027.314,176.766,577.688,282.977,-20.143,115.286,2.715,14.893,8.700,0.291,0,0,0,0,0,5.000
86414,-522,-197,7986,-578.971,-616.129,8031.457,175.734,578.340,280.206,-16.143,111.714,41.426,-10.319,6.517,-27.716,0,0,0,0,0,5.000
86514,-623,-174,8343,-582.643,-604.457,8034.729,173.921,578.900,282.478,-36.714,116.714,32.715,-18.125,5.607,22.722,0,0,0,0,0,5.000
86614,-725,-277,8041,-576.614,-593.271,8038.914,161.096,577.553,280.361,60.286,111.857,41.855,-128.257,-13.472,-21.168,0,0,0,0,0,5.000
86714,-488,64,8066,-572.357,-575.857,8032.757,159.435,578.730,274.913,42.571,174.143,-61.567,-16.606,11.768,-54.481,0,0,0,0,0,5.000
86814,-584,-26,7823,-572.871,-563.143,8031.957,159.414,580.890,275.440,-5.143,127.142,-8.003,-0.213,21.599,5.272,0,0,0,0,0,5.000
86914,-448,-14,8024,-576.243,-548.543,8035.414,154.155,581.664,273.795,-33.715,146.000,34.570,-52.589,7.747,-16.452,0,0,0,0,0,5.000
87014,-623,-240,8231,-573.971,-535.500,8026.771,152.266,578.190,257.448,22.714,130.428,-86.426,-18.886,-34.745,-163.474,0,0,0,0,0,5.000
87114,-700,-96,8144,-583.086,-522.786,8037.029,139.944,577.929,247.415,-91.143,127.143,102.573,-123.222,-2.606,-100.324,0,0,0,0,0,5.000
87214,-403,-312,7949,-585.986,-509.971,8032.743,133.951,572.491,246.302,-29.000,128.143,-42.861,-59.936,-54.385,-11.131,0,0,0,0,0,5.000
87314,-801,-216,8478,-588.186,-492.271,8041.372,136.181,562.058,251.122,-22.000,177.000,86.289,22.301,-104.332,48.204,0,0,0,0,0,5.000
87414,-625,-176,7814,-582.543,-475.171,8037.829,125.972,553.140,252.552,56.429,171.000,-35.430,-102.087,-89.174,14.293,0,0,0,0,0,5.000
87514,-472,-189,8287,-578.214,-460.614,8047.229,124.481,547.038,249.386,43.286,145.571,93.999,-14.905,-61.026,-31.660,0,0,0,0,0,5.000
87614,-673,-253,7950,-580.029,-443.286,8049.943,124.923,533.972,247.270,-18.143,173.286,27.144,4.420,-130.661,-21.159,0,0,0,0,0,5.000
87714,-654,-107,8266,-580.000,-427.286,8053.128,124.906,526.983,248.593,0.286,160.000,31.855,-0.171,-69.888,13.230,0,0,0,0,0,5.000
87814,-497,7,7480,-582.143,-407.286,8044.057,122.147,516.413,257.593,-21.429,200.000,-90.713,-27.595,-105.699,89.997,0,0,0,0,0,5.000
87914,-615,-87,8037,-581.914,-388.286,8042.757,122.070,503.212,257.395,2.286,190.000,-12.998,-0.767,-132.010,-1.974,0,0,0,0,0,5.000
88014,-531,-35,7850,-583.243,-366.200,8035.128,120.998,483.937,255.071,-13.286,220.857,-76.289,-10.722,-192.748,-23.239,0,0,0,0,0,5.000
88114,-742,-69,8020,-585.586,-348.200,8035.500,122.453,471.052,255.030,-23.428,180.000,3.716,14.548,-128.848,-0.412,0,0,0,0,0,5.000
88214,-475,-22,7976,-584.957,-338.243,8046.800,122.905,470.475,233.730,6.285,99.572,112.998,4.523,-5.769,-213.002,0,0,0,0,0,5.000
88314,-542,-239,8192,-587.443,-331.357,8052.943,120.222,468.345,231.807,-24.857,68.857,61.431,-26.827,-21.300,-19.231,0,0,0,0,0,5.000
88414,-697,-117,8190,-589.029,-322.414,8055.229,120.923,466.372,232.357,-15.857,89.429,22.856,7.005,-19.731,5.507,0,0,0,0,0,5.000
88514,-401,-304,8160,-587.186,-313.800,8055.800,122.777,461.033,232.565,18.428,86.143,5.713,18.543,-53.389,2.077,0,0,0,0,0,5.000
88614,-606,-265,8297,-586.157,-301.843,8058.557,122.313,451.185,234.258,10.286,119.571,27.573,-4.644,-98.486,16.930,0,0,0,0,0,5.000
88714,-647,-158,8175,-587.943,-287.257,8054.214,122.275,438.929,229.186,-17.857,145.857,-43.428,-0.372,-122.555,-50.718,0,0,0,0,0,5.000
88814,-345,-59,7905,-580.214,-265.857,8048.957,120.273,412.205,228.326,77.286,214.000,-52.573,-20.024,-267.240,-8.599,0,0,0,0,0,5.000
88914,-504,-116,7642,-579.629,-248.271,8043.286,120.543,391.442,233.378,5.857,175.857,-56.714,2.696,-207.635,50.516,0,0,0,0,0,5.000
89014,-629,-92,8177,-581.529,-227.757,8043.357,120.257,360.221,233.418,-19.000,205.143,0.713,-2.853,-312.212,0.401,0,0,0,0,0,5.000
89114,-628,-17,7609,-580.757,-207.814,8039.086,119.783,331.552,238.536,7.714,199.429,-42.710,-4.747,-286.681,51.175,0,0,0,0,0,5.000
89214,-535,-84,7785,-583.443,-189.014,8040.971,116.576,299.146,235.984,-26.857,188.000,18.853,-32.066,-324.066,-25.515,0,0,0,0,0,5.000
89314,-544,-70,7833,-582.129,-172.714,8041.243,116.495,272.954,235.734,13.143,163.000,2.715,-0.813,-261.914,-2.504,0,0,0,0,0,5.000
89414,-721,-85,7983,-584.243,-152.686,8037.729,117.647,222.568,234.740,-21.143,200.286,-35.142,11.525,-503.865,-9.937,0,0,0,0,0,5.000
89514,-449,-153,7898,-581.714,-131.100,8028.872,118.621,128.222,228.053,25.286,215.857,-88.569,9.734,-943.456,-66.870,0,0,0,0,0,5.000
89614,-655,-293,8497,-580.929,-136.814,8030.757,117.948,126.384,231.347,7.857,-57.143,18.857,-6.721,-18.384,32.935,0,0,0,0,0,5.000
89714,-711,-245,8109,-583.229,-140.271,8027.929,118.889,125.985,229.152,-23.000,-34.571,-28.286,9.405,-3.984,-21.948,0,0,0,0,0,5.000
89814,-448,-45,8302,-584.071,-143.529,8029.929,117.712,120.410,230.917,-8.428,-32.571,20.000,-11.767,-55.759,17.656,0,0,0,0,0,5.000
89914,-536,-135,7896,-580.586,-143.300,8024.628,115.450,120.410,229.670,34.857,2.286,-53.003,-22.625,0.008,-12.478,0,0,0,0,0,5.000
90014,-518,-26,8194,-581.257,-135.914,8027.286,114.946,111.168,230.536,-6.714,73.857,26.572,-5.037,-92.421,8.665,0,0,0,0,0,5.000
90114,-469,-34,7795,-580.614,-130.400,8023.814,115.445,106.412,232.172,6.429,55.143,-34.712,4.991,-47.566,16.363,0,0,0,0,0,5.000
90214,-550,32,7830,-577.743,-126.614,8017.514,113.657,107.403,231.361,28.714,37.857,-63.003,-17.878,9.918,-8.110,0,0,0,0,0,5.000
90314,-451,-116,8156,-573.843,-130.529,8016.714,113.255,101.806,230.784,39.000,-39.143,-7.998,-4.024,-55.969,-5.778,0,0,0,0,0,5.000
90414,-662,-35,7703,-577.886,-130.800,8019.786,111.261,101.526,225.087,-40.429,-2.714,30.713,-19.939,-2.808,-56.965,0,0,0,0,0,5.000
90514,-526,-98,7751,-575.157,-128.514,8013.714,110.152,100.431,226.519,27.286,22.857,-60.713,-11.086,-10.943,14.318,0,0,0,0,0,5.000
90614,-649,-267,8307,-575.771,-131.857,8021.057,110.442,101.089,227.574,-6.143,-33.429,73.428,2.898,6.574,10.548,0,0,0,0,0,5.000
90714,-855,-219,8158,-578.071,-136.229,8023.657,114.483,98.102,228.083,-23.000,-43.714,26.001,40.407,-29.865,5.095,0,0,0,0,0,5.000
90814,-527,-168,8073,-579.757,-136.757,8028.800,112.838,98.172,225.059,-16.857,-5.286,51.426,-16.450,0.701,-30.241,0,0,0,0,0,5.000
90914,-534,-55,7946,-578.286,-131.586,8027.357,112.753,92.653,225.261,14.714,51.714,-14.429,-0.845,-55.191,2.024,0,0,0,0,0,5.000
91014,-729,-225,8142,-578.614,-134.557,8028.314,113.158,92.265,225.604,-3.286,-29.714,9.575,4.045,-3.879,3.425,0,0,0,0,0,5.000
91114,-488,87,8048,-580.671,-130.643,8029.286,110.143,95.705,225.540,-20.572,39.143,9.712,-30.151,34.401,-0.637,0,0,0,0,0,5.000
91214,-624,-3,7890,-580.443,-126.814,8021.314,110.036,95.374,220.403,2.286,38.286,-79.712,-1.068,-3.315,-51.374,0,0,0,0,0,5.000
91314,-445,-20,7945,-577.643,-123.414,8019.943,110.949,94.878,220.575,28.000,34.000,-13.716,9.134,-4.963,1.719,0,0,0,0,0,5.000
91414,-601,-268,8220,-580.214,-125.986,8021.257,109.364,96.311,221.487,-25.714,-25.714,13.145,-15.857,14.337,9.121,0,0,0,0,0,5.000
91514,-713,-95,8130,-582.243,-126.143,8026.357,110.485,96.252,219.816,-20.286,-1.571,50.996,11.215,-0.597,-16.713,0,0,0,0,0,5.000
91614,-394,-250,7936,-578.614,-128.343,8022.086,112.420,97.292,218.621,36.286,-22.000,-42.710,19.348,10.402,-11.940,0,0,0,0,0,5.000
91714,-764,-237,8472,-581.943,-131.414,8037.271,114.393,97.280,212.337,-33.286,-30.714,151.855,19.730,-0.119,-62.848,0,0,0,0,0,5.000
91814,-608,-211,7802,-582.700,-133.686,8036.229,114.388,97.255,213.308,-7.571,-22.714,-10.430,-0.055,-0.245,9.715,0,0,0,0,0,5.000
91914,-445,-177,8273,-579.771,-133.943,8039.014,115.248,97.346,215.101,29.286,-2.571,27.856,8.605,0.903,17.931,0,0,0,0,0,5.000
92014,-667,-226,7954,-578.186,-134.386,8037.614,113.256,97.692,215.331,15.857,-4.429,-13.999,-19.919,3.467,2.297,0,0,0,0,0,5.000
92114,-644,-84,8244,-580.757,-133.643,8042.671,112.676,97.875,215.961,-25.714,7.429,50.571,-5.798,1.824,6.298,0,0,0,0,0,5.000
92214,-489,22,7368,-578.671,-129.600,8026.757,113.004,98.374,223.900,20.857,40.428,-159.141,3.274,4.994,79.390,0,0,0,0,0,5.000
92314,-599,-68,8037,-576.743,-127.400,8025.414,111.478,98.005,223.552,19.286,22.000,-13.433,-15.257,-3.697,-3.476,0,0,0,0,0,5.000
92414,-600,-87,7878,-579.229,-126.657,8020.372,110.020,98.111,222.838,-24.857,7.429,-50.425,-14.586,1.063,-7.141,0,0,0,0,0,5.000
92514,-736,-89,7959,-582.900,-125.086,8020.628,110.898,97.820,222.757,-36.714,15.714,2.568,8.787,-2.908,-0.814,0,0,0,0,0,5.000
92614,-431,-172,7893,-580.571,-127.057,8016.128,112.343,97.354,222.107,23.286,-19.714,-45.000,14.444,-4.661,-6.499,0,0,0,0,0,5.000
92714,-682,-235,8564,-583.671,-129.957,8026.500,112.104,97.503,230.345,-31.000,-29.000,103.716,-2.382,1.486,82.378,0,0,0,0,0,5.000
92814,-762,-281,8073,-587.614,-134.129,8032.157,113.445,97.629,226.523,-39.428,-41.714,56.572,13.411,1.264,-38.219,0,0,0,0,0,5.000
92914,-441,-218,8225,-587.029,-134.214,8036.128,114.093,97.700,227.430,5.857,-0.857,39.712,6.478,0.709,9.073,0,0,0,0,0,5.000
93014,-528,-235,8081,-583.686,-135.729,8034.729,112.332,98.426,226.847,33.428,-15.143,-13.999,-17.611,7.262,-5.829,0,0,0,0,0,5.000
93114,-629,-73,8203,-584.986,-134.400,8039.800,112.322,98.636,226.584,-13.000,13.286,50.713,-0.097,2.099,-2.632,0,0,0,0,0,5.000
93214,-399,-4,7753,-581.929,-131.671,8035.500,114.411,99.559,229.116,30.571,27.286,-42.998,20.888,9.234,25.317,0,0,0,0,0,5.000
93314,-497,32,7670,-577.929,-128.557,8029.829,112.398,101.207,233.144,40.000,31.143,-56.714,-20.130,16.478,40.282,0,0,0,0,0,5.000
93414,-527,-214,7984,-578.000,-128.800,8029.800,112.364,101.391,233.149,-0.714,-2.429,-0.288,-0.340,1.842,0.055,0,0,0,0,0,5.000
93514,-783,-136,8179,-580.286,-128.257,8027.457,114.856,101.250,230.803,-22.857,5.429,-23.428,24.919,-1.418,-23.469,0,0,0,0,0,5.000
93614,-575,-127,7683,-578.143,-126.114,8022.343,113.528,99.654,234.384,21.428,21.429,-51.143,-13.283,-15.960,35.819,0,0,0,0,0,5.000
93714,-551,-235,8388,-579.043,-130.386,8026.943,113.058,97.804,238.323,-9.000,-42.714,46.001,-4.694,-18.495,39.383,0,0,0,0,0,5.000
93814,-780,-275,8123,-581.843,-133.943,8031.229,115.546,98.469,237.312,-28.000,-35.571,42.856,24.878,6.646,-10.107,0,0,0,0,0,5.000
93914,-631,-89,8189,-584.457,-135.014,8033.586,114.554,97.562,238.047,-26.143,-10.714,23.574,-9.919,-9.071,7.348,0,0,0,0,0,5.000
94014,-468,5,7545,-582.243,-131.514,8023.786,115.284,98.126,243.770,22.143,35.000,-98.003,7.293,5.639,57.230,0,0,0,0,0,5.000
94114,-648,-128,8069,-581.500,-131.971,8022.714,114.688,98.034,243.404,7.429,-4.572,-10.713,-5.952,-0.920,-3.661,0,0,0,0,0,5.000
94214,-540,-21,8060,-583.457,-127.814,8024.300,112.779,96.469,243.280,-19.572,41.572,15.854,-19.098,-15.648,-1.239,0,0,0,0,0,5.000
94314,-594,-21,7812,-580.500,-125.029,8014.786,109.708,96.697,238.323,29.572,27.857,-95.142,-30.709,2.285,-49.569,0,0,0,0,0,5.000
94414,-424,-5,8010,-577.629,-122.586,8017.586,111.127,97.535,237.096,28.714,24.429,28.003,14.190,8.378,-12.272,0,0,0,0,0,5.000
94514,-584,-194,8120,-579.229,-122.657,8015.200,110.398,97.585,235.205,-16.000,-0.714,-23.857,-7.285,0.504,-18.902,0,0,0,0,0,5.000
94614,-696,-32,8098,-579.557,-119.500,8017.314,110.711,96.890,235.275,-3.286,31.571,21.143,3.124,-6.955,0.696,0,0,0,0,0,5.000
94714,-377,-306,8070,-575.600,-122.343,8014.514,112.908,99.369,233.458,39.572,-28.429,-28.003,21.971,24.793,-18.170,0,0,0,0,0,5.000
94814,-614,-278,8373,-577.271,-126.414,8027.271,112.597,99.824,228.242,-16.714,-40.714,127.573,-3.103,4.546,-52.163,0,0,0,0,0,5.000
94914,-689,-172,8113,-578.329,-127.629,8028.357,113.292,99.854,228.466,-10.571,-12.143,10.854,6.945,0.301,2.244,0,0,0,0,0,5.000
95014,-342,-36,7886,-575.629,-127.643,8028.872,116.592,99.841,228.104,27.000,-0.143,5.146,32.999,-0.132,-3.619,0,0,0,0,0,5.000
95114,-537,-52,7660,-572.700,-127.400,8023.729,114.939,100.004,232.267,29.286,2.429,-51.431,-16.528,1.629,41.624,0,0,0,0,0,5.000
95214,-590,-121,8100,-574.343,-128.814,8025.500,114.351,99.200,232.369,-16.428,-14.143,17.715,-5.878,-8.038,1.021,0,0,0,0,0,5.000
95314,-686,-46,7823,-576.400,-126.057,8020.229,115.044,98.780,232.717,-20.572,27.571,-52.715,6.928,-4.196,3.483,0,0,0,0,0,5.000
95414,-535,-97,7648,-574.086,-125.771,8012.486,114.221,98.835,235.934,23.143,2.857,-77.427,-8.228,0.547,32.170,0,0,0,0,0,5.000
95514,-601,-269,8029,-576.943,-125.271,8010.614,112.342,98.017,235.275,-28.572,5.000,-18.716,-18.794,-8.178,-6.589,0,0,0,0,0,5.000
95614,-771,-130,8054,-579.300,-123.343,8007.143,114.634,96.566,232.804,-23.571,19.286,-34.712,22.926,-14.509,-24.714,0,0,0,0,0,5.000
95714,-521,-192,7995,-577.500,-123.829,8004.571,114.546,96.825,231.928,18.000,-4.857,-25.718,-0.880,2.583,-8.758,0,0,0,0,0,5.000
95814,-652,-210,8427,-581.886,-125.986,8012.029,111.394,97.038,236.944,-43.857,-21.571,74.575,-31.521,2.135,50.162,0,0,0,0,0,5.000
95914,-760,-286,8086,-585.543,-128.414,8018.372,112.968,98.868,232.861,-36.571,-24.286,63.428,15.741,18.297,-40.827,0,0,0,0,0,5.000
96014,-461,50,8186,-583.143,-126.386,8018.500,113.801,101.027,232.951,24.000,20.286,1.284,8.328,21.595,0.900,0,0,0,0,0,5.000
96114,-534,-28,7786,-581.800,-126.543,8021.029,113.818,100.865,229.427,13.429,-1.571,25.288,0.173,-1.619,-35.247,0,0,0,0,0,5.000
96214,-497,-8,8095,-581.257,-125.457,8025.457,114.131,101.723,227.814,5.428,10.857,44.282,3.121,8.575,-16.125,0,0,0,0,0,5.000
96314,-577,-165,8034,-581.729,-126.814,8028.329,114.044,101.608,226.634,-4.714,-13.571,28.716,-0.868,-1.153,-11.802,0,0,0,0,0,5.000
96414,-697,7,8055,-581.386,-125.500,8029.357,113.660,102.729,226.589,3.428,13.143,10.283,-3.838,11.212,-0.447,0,0,0,0,0,5.000
96514,-402,-311,7985,-580.714,-127.757,8030.600,114.575,105.019,226.103,6.714,-22.571,12.432,9.152,22.897,-4.858,0,0,0,0,0,5.000
96614,-664,-261,8465,-580.843,-127.300,8030.143,114.664,104.366,225.191,-1.285,4.571,-4.570,0.883,-6.527,-9.129,0,0,0,0,0,5.000
96714,-640,-119,7779,-579.829,-125.500,8025.429,113.819,103.403,226.938,10.143,18.000,-47.144,-8.449,-9.634,17.473,0,0,0,0,0,5.000
96814,-586,-237,8330,-581.800,-128.243,8025.829,112.708,103.777,227.449,-19.714,-27.429,3.999,-11.107,3.741,5.112,0,0,0,0,0,5.000
96914,-779,-261,8079,-585.271,-130.043,8028.443,114.963,104.964,226.993,-34.714,-18.000,26.143,22.556,11.875,-4.560,0,0,0,0,0,5.000
97014,-609,-174,8225,-586.571,-132.157,8028.886,114.710,104.336,227.346,-13.000,-21.143,4.429,-2.538,-6.283,3.526,0,0,0,0,0,5.000
97114,-544,-26,7860,-587.643,-132.043,8029.814,113.954,104.448,226.520,-10.715,1.143,9.287,-7.554,1.118,-8.260,0,0,0,0,0,5.000
97214,-709,-167,8093,-589.914,-134.886,8033.571,114.763,102.636,225.352,-22.714,-28.428,37.568,8.088,-18.111,-11.673,0,0,0,0,0,5.000
97314,-462,50,7801,-590.071,-132.514,8028.500,114.580,104.937,226.532,-1.571,23.714,-50.713,-1.829,23.009,11.792,0,0,0,0,0,5.000
97414,-649,-38,7913,-589.886,-132.557,8031.500,114.474,104.898,223.572,1.857,-0.429,30.000,-1.063,-0.392,-29.593,0,0,0,0,0,5.000
97514,-405,-94,7960,-588.157,-132.500,8034.486,116.324,104.918,221.189,17.286,0.571,29.858,18.503,0.199,-23.831,0,0,0,0,0,5.000
97614,-677,-297,8492,-588.557,-132.929,8037.128,116.581,105.526,225.493,-4.000,-4.286,26.426,2.564,6.080,43.037,0,0,0,0,0,5.000
97714,-691,-213,8076,-586.214,-132.843,8035.957,112.789,105.459,225.075,23.428,0.857,-11.714,-37.919,-0.675,-4.183,0,0,0,0,0,5.000
97814,-408,-133,8242,-584.514,-132.343,8038.372,114.551,105.374,226.362,17.000,5.000,24.146,17.627,-0.849,12.871,0,0,0,0,0,5.000
97914,-499,-175,7958,-584.014,-134.057,8038.543,114.847,105.077,226.296,5.000,-17.143,1.714,2.954,-2.965,-0.655,0,0,0,0,0,5.000
98014,-645,-171,8109,-582.814,-133.286,8038.071,113.759,104.604,226.114,12.000,7.714,-4.717,-10.875,-4.733,-1.817,0,0,0,0,0,5.000
98114,-328,-39,7901,-580.529,-135.086,8035.971,117.197,101.845,226.694,22.857,-18.000,-21.001,34.376,-27.584,5.799,0,0,0,0,0,5.000
98214,-535,-79,7658,-579.257,-136.171,8032.657,117.201,100.832,230.469,12.714,-10.857,-33.140,0.042,-10.138,37.744,0,0,0,0,0,5.000
98314,-617,-136,8156,-581.714,-137.829,8035.671,116.159,99.857,230.682,-24.572,-16.571,30.142,-10.421,-9.744,2.136,0,0,0,0,0,5.000
98414,-698,-30,7799,-583.100,-134.429,8029.657,116.957,99.418,231.285,-13.857,34.000,-60.142,7.976,-4.392,6.031,0,0,0,0,0,5.000
98514,-524,-82,7649,-580.400,-134.243,8022.786,116.105,99.504,235.312,27.000,1.857,-68.716,-8.515,0.856,40.269,0,0,0,0,0,5.000
98614,-603,-290,8377,-583.386,-134.814,8029.086,113.941,100.279,238.782,-29.857,-5.714,63.003,-21.647,7.750,34.700,0,0,0,0,0,5.000
98714,-848,-241,8171,-584.586,-134.871,8024.786,116.255,100.338,233.418,-12.000,-0.571,-43.003,23.147,0.593,-53.648,0,0,0,0,0,5.000
98814,-621,-122,8149,-584.771,-133.600,8029.743,116.303,99.928,232.316,-1.857,12.714,49.570,0.476,-4.097,-11.019,0,0,0,0,0,5.000
98914,-473,-14,7715,-585.171,-131.271,8021.771,115.869,100.785,233.403,-4.000,23.286,-79.712,-4.341,8.570,10.871,0,0,0,0,0,5.000
99014,-698,-178,8116,-585.614,-130.586,8024.086,116.239,100.300,233.522,-4.428,6.857,23.145,3.706,-4.847,1.197,0,0,0,0,0,5.000
99114,-509,7,7846,-583.686,-129.286,8018.400,116.374,101.479,232.943,19.285,13.000,-56.860,1.352,11.782,-5.792,0,0,0,0,0,5.000
99214,-698,-19,7798,-586.671,-129.871,8024.543,116.588,100.719,221.078,-29.857,-5.857,61.431,2.133,-7.594,-118.649,0,0,0,0,0,5.000
99314,-472,-6,8081,-584.857,-128.986,8025.171,117.367,101.529,221.175,18.143,8.857,6.284,7.796,8.096,0.971,0,0,0,0,0,5.000
99414,-574,-213,8130,-584.486,-130.786,8028.771,117.360,101.885,220.801,3.714,-18.000,36.001,-0.074,3.560,-3.742,0,0,0,0,0,5.000
99514,-704,-51,8160,-584.029,-130.243,8031.643,116.830,102.207,221.182,4.572,5.429,28.716,-5.299,3.219,3.806,0,0,0,0,0,5.000
99614,-388,-315,8079,-583.414,-132.286,8034.300,117.743,104.426,220.617,6.143,-20.429,26.567,9.125,22.192,-5.650,0,0,0,0,0,5.000
99714,-609,-255,8345,-582.371,-132.571,8031.171,117.187,104.733,214.552,10.429,-2.857,-31.284,-5.558,3.075,-60.644,0,0,0,0,0,5.000
99814,-697,-169,8112,-581.443,-130.971,8031.729,116.011,103.299,214.711,9.285,16.000,5.571,-11.754,-14.340,1.585,0,0,0,0,0,5.000
99914,-354,-13,7907,-580.200,-128.043,8027.186,117.959,103.696,213.936,12.429,29.286,-45.430,19.476,3.963,-7.746,0,0,0,0,0,5.000
100014,-526,-45,7617,-580.171,-125.329,8020.557,117.972,103.347,219.288,0.286,27.143,-66.284,0.129,-3.491,53.513,0,0,0,0,0,5.000
100114,-586,-140,8132,-579.557,-126.286,8019.543,117.828,103.168,218.604,6.143,-9.571,-10.142,-1.440,-1.790,-6.831,0,0,0,0,0,5.000
100214,-637,-44,7766,-582.957,-126.857,8019.729,115.988,102.598,218.383,-34.000,-5.714,1.855,-18.397,-5.697,-2.211,0,0,0,0,0,5.000
100314,-573,-89,8003,-584.043,-128.586,8024.486,115.533,100.912,214.302,-10.857,-17.286,47.573,-4.549,-16.855,-40.813,0,0,0,0,0,5.000
100414,-592,-138,7978,-584.971,-127.500,8024.400,115.332,100.395,214.319,-9.286,10.857,-0.859,-2.012,-5.173,0.174,0,0,0,0,0,5.000
100514,-784,-111,8072,-584.986,-127.143,8022.872,115.357,100.409,213.592,-0.143,3.571,-15.283,0.246,0.136,-7.278,0,0,0,0,0,5.000
100614,-482,-191,7974,-583.657,-128.057,8027.029,115.998,100.694,209.733,13.286,-9.143,41.572,6.411,2.855,-38.584,0,0,0,0,0,5.000
100714,-677,-224,8453,-585.457,-127.900,8027.957,116.454,100.536,211.466,-18.000,1.571,9.282,4.560,-1.585,17.328,0,0,0,0,0,5.000
100814,-725,-283,8044,-584.671,-128.014,8026.829,115.319,100.707,211.166,7.857,-1.143,-11.284,-11.352,1.715,-2.997,0,0,0,0,0,5.000
100914,-422,55,8164,-581.686,-125.957,8026.471,116.777,102.929,210.913,29.857,20.571,-3.574,14.583,22.221,-2.536,0,0,0,0,0,5.000
101014,-539,-62,7781,-582.700,-126.914,8029.843,116.091,102.015,204.993,-10.143,-9.571,33.716,-6.855,-9.148,-59.201,0,0,0,0,0,5.000
101114,-476,13,8058,-580.243,-124.900,8029.686,116.503,103.357,204.967,24.572,20.143,-1.572,4.114,13.419,-0.259,0,0,0,0,0,5.000
101214,-563,-158,8069,-580.571,-126.857,8029.814,116.421,102.665,204.989,-3.286,-19.571,1.289,-0.815,-6.912,0.218,0,0,0,0,0,5.000
101314,-687,-10,8099,-581.900,-126.700,8033.914,117.095,102.836,203.456,-13.286,1.571,40.996,6.743,1.702,-15.331,0,0,0,0,0,5.000
101414,-349,-329,8085,-580.829,-131.329,8034.986,118.865,104.531,203.524,10.715,-46.286,10.718,17.696,16.957,0.687,0,0,0,0,0,5.000
101514,-636,-171,8347,-581.571,-131.000,8038.229,119.045,104.370,206.638,-7.429,3.286,32.427,1.799,-1.615,31.134,0,0,0,0,0,5.000
101614,-589,-158,7762,-580.043,-132.800,8033.429,118.250,103.731,209.082,15.286,-18.000,-47.998,-7.948,-6.384,24.438,0,0,0,0,0,5.000
101714,-476,-214,8308,-581.457,-131.486,8036.829,116.391,102.099,211.569,-14.143,13.143,33.999,-18.595,-16.328,24.874,0,0,0,0,0,5.000
101814,-709,-242,7922,-582.814,-130.971,8030.386,117.312,101.448,208.072,-13.571,5.143,-64.429,9.218,-6.507,-34.973,0,0,0,0,0,5.000
101914,-672,-70,8265,-582.571,-129.514,8032.557,117.110,101.581,209.709,2.429,14.572,21.714,-2.027,1.327,16.375,0,0,0,0,0,5.000
102014,-441,22,7325,-583.986,-128.686,8024.543,114.770,102.572,225.297,-14.143,8.286,-80.142,-23.394,9.911,155.880,0,0,0,0,0,5.000
102114,-573,-78,7975,-584.500,-129.057,8029.043,114.639,102.340,221.077,-5.143,-3.714,45.000,-1.311,-2.316,-42.198,0,0,0,0,0,5.000
102214,-570,-89,7899,-584.214,-128.600,8026.171,114.650,102.447,221.442,2.857,4.571,-28.716,0.109,1.064,3.647,0,0,0,0,0,5.000
102314,-746,-79,7973,-585.071,-129.071,8028.314,115.628,102.141,220.188,-8.571,-4.714,21.431,9.779,-3.057,-12.542,0,0,0,0,0,5.000
102414,-472,-162,7933,-584.171,-130.000,8032.386,116.258,102.141,215.707,9.000,-9.286,40.713,6.297,-0.003,-44.806,0,0,0,0,0,5.000
102514,-648,-273,8512,-584.843,-130.057,8039.286,116.488,102.219,223.088,-6.714,-0.571,68.999,2.307,0.788,73.802,0,0,0,0,0,5.000
102614,-734,-266,8072,-584.314,-132.000,8039.543,115.724,103.484,223.115,5.286,-19.429,2.573,-7.645,12.651,0.272,0,0,0,0,0,5.000
102714,-379,-278,8141,-582.286,-133.229,8041.628,118.038,104.693,223.371,20.286,-12.286,20.854,23.135,12.085,2.561,0,0,0,0,0,5.000
102814,-542,-253,8233,-580.714,-133.843,8038.857,117.831,105.266,219.746,15.714,-6.143,-27.715,-2.065,5.732,-36.245,0,0,0,0,0,5.000
102914,-661,-140,8199,-579.300,-131.757,8040.471,116.254,103.665,220.500,14.143,20.857,16.143,-15.768,-16.012,7.541,0,0,0,0,0,5.000
103014,-349,-34,7831,-577.700,-132.957,8035.400,118.618,102.027,221.176,16.000,-12.000,-50.713,23.638,-16.377,6.760,0,0,0,0,0,5.000
103114,-480,-67,7594,-576.929,-133.514,8032.657,119.074,101.558,225.402,7.714,-5.571,-27.427,4.564,-4.693,42.260,0,0,0,0,0,5.000
103214,-557,-116,8072,-577.786,-135.057,8032.329,118.711,100.454,225.328,-8.571,-15.429,-3.286,-3.630,-11.041,-0.744,0,0,0,0,0,5.000
103314,-695,-35,7840,-579.471,-133.200,8029.557,119.523,101.083,226.481,-16.857,18.571,-27.715,8.119,6.290,11.525,0,0,0,0,0,5.000
103414,-577,-89,7721,-577.757,-134.571,8024.786,118.683,99.815,229.394,17.143,-13.714,-47.715,-8.404,-12.682,29.133,0,0,0,0,0,5.000
103514,-627,-233,8239,-580.971,-133.457,8028.414,116.913,98.262,230.741,-32.143,11.143,36.284,-17.699,-15.525,13.469,0,0,0,0,0,5.000
103614,-833,-216,8119,-583.386,-132.814,8023.471,120.299,97.570,224.969,-24.143,6.429,-49.429,33.856,-6.917,-57.715,0,0,0,0,0,5.000
103714,-549,-184,7915,-582.086,-133.743,8025.414,120.171,97.744,223.431,13.000,-9.286,19.429,-1.272,1.732,-15.377,0,0,0,0,0,5.000
103814,-656,-267,8557,-583.086,-134.171,8028.657,120.491,98.260,229.396,-10.000,-4.286,32.432,3.193,5.162,59.649,0,0,0,0,0,5.000
103914,-698,-281,8039,-581.929,-134.457,8028.086,118.983,98.657,229.320,11.571,-2.857,-5.713,-15.075,3.967,-0.763,0,0,0,0,0,5.000
104014,-431,-57,8279,-579.386,-132.786,8028.857,120.272,98.963,230.071,25.428,16.714,7.710,12.893,3.065,7.507,0,0,0,0,0,5.000
104114,-516,-131,7811,-578.986,-134.286,8028.157,120.436,98.125,230.657,4.000,-15.000,-6.997,1.635,-8.377,5.865,0,0,0,0,0,5.000
104214,-510,0,8105,-576.143,-131.900,8028.329,119.680,99.324,230.710,28.428,23.857,1.714,-7.562,11.984,0.526,0,0,0,0,0,5.000
