tstm,aX,aY,aZ,meanX,meanY,meanZ,stdX,stdY,stdZ,meanDiffX,meanDiffY,meanDiffZ,stdDiffX,stdDiffY,stdDiffZ,HardAccel,HardBrake,LaneChanL,LaneChanR,ui8LaneHole
7113,1071,747,8340,-1039.600,729.843,7865.757,1556.835,812.948,865.215,383.286,347.142,18.716,195.292,-489.359,8.866,0,0,0,0,0
7213,-1385,1891,9276,-1044.600,774.971,7885.257,1557.374,788.092,881.248,-50.000,451.286,195.000,5.392,-248.557,160.334,0,0,0,0,0
7313,518,1831,7483,-1015.557,812.314,7880.872,1567.256,775.210,882.474,290.428,373.428,-43.857,98.820,-128.821,12.262,0,0,0,0,0
7413,2649,1344,5904,-960.643,844.843,7851.743,1626.241,748.609,913.064,549.142,325.286,-291.289,589.844,-266.013,305.898,0,0,1,0,0
7513,393,2048,8170,-935.400,885.629,7857.429,1633.327,735.154,913.789,252.429,407.858,56.860,70.863,-134.548,7.247,0,0,0,0,0
7613,1524,1715,7565,-897.957,917.214,7860.071,1659.033,722.503,912.671,374.429,315.857,26.426,257.063,-126.511,-11.177,0,0,0,0,0
7713,1485,781,7647,-860.643,934.257,7846.771,1682.668,704.801,908.888,373.143,170.428,-132.998,236.345,-177.015,-37.833,0,0,0,0,0
7813,-1331,2965,9298,-863.471,980.143,7876.872,1683.289,730.492,921.474,-28.286,458.857,301.001,6.216,256.907,125.861,0,0,0,0,0
7913,-2369,917,7831,-881.129,997.600,7865.872,1692.482,713.986,917.351,-176.572,174.571,-110.000,91.923,-165.056,-41.231,0,0,0,0,0
8013,3253,1077,8038,-818.714,1015.971,7866.186,1761.808,699.093,917.406,624.143,183.715,3.140,693.267,-148.936,0.551,0,0,0,0,0
8113,1398,1987,6575,-781.786,1049.743,7843.271,1780.692,687.997,929.261,369.286,337.714,-229.141,188.838,-110.952,118.557,0,0,0,0,0
8213,-2362,2030,9907,-797.157,1082.700,7870.771,1789.600,678.848,960.905,-153.715,329.572,275.000,89.082,-91.491,316.434,0,0,0,0,0
8313,-846,1860,6794,-793.029,1112.614,7857.514,1789.149,666.187,969.231,41.286,299.143,-132.573,-4.510,-126.619,83.267,0,0,0,0,0
8413,3045,1524,7123,-731.714,1140.229,7847.372,1845.206,642.171,973.142,613.143,276.143,-101.426,560.570,-240.153,39.106,0,0,0,0,0
8513,-1270,1176,9232,-734.214,1151.971,7866.171,1845.815,635.164,986.901,-25.000,117.429,187.998,6.091,-70.071,137.587,0,0,0,0,0
8613,-24,1649,6965,-724.057,1172.957,7855.900,1847.738,626.918,992.469,101.572,209.857,-102.715,19.230,-82.463,55.685,0,0,0,0,0
8713,1423,1323,6381,-687.714,1191.300,7834.586,1864.516,612.080,1007.776,363.428,183.429,-213.140,167.778,-148.379,153.069,0,0,0,0,0
8813,1337,672,8387,-640.229,1194.543,7839.514,1873.129,608.709,1009.620,474.857,32.428,49.282,86.130,-33.705,18.443,0,0,0,0,0
8913,-766,1464,6265,-632.671,1215.314,7819.586,1871.539,592.527,1026.592,75.571,207.715,-199.282,-15.906,-161.827,169.717,0,0,0,0,0
9013,58,1255,7784,-611.414,1235.571,7820.500,1870.812,568.824,1026.532,212.571,202.571,9.141,-7.264,-237.026,-0.604,0,0,0,0,0
9113,3738,2032,7694,-547.914,1258.200,7820.000,1940.625,568.550,1026.584,635.000,226.285,-5.000,698.124,-2.740,0.526,0,0,0,0,0
9213,-739,1513,7250,-533.557,1269.286,7811.486,1935.433,565.838,1028.803,143.572,110.858,-85.142,-51.913,-27.117,22.183,0,0,0,0,0
9313,97,1280,8848,-509.871,1274.814,7834.700,1932.858,564.023,1033.584,236.857,55.286,232.144,-25.753,-18.159,47.819,0,0,0,0,0
9413,-2462,1703,7478,-556.600,1301.314,7818.214,1939.935,539.403,1029.933,-467.285,265.000,-164.858,70.771,-246.196,-36.517,0,0,0,0,0
9513,54,2506,6265,-496.629,1329.914,7790.286,1892.413,549.353,1045.055,599.714,286.000,-279.287,-475.217,99.498,151.219,0,0,0,0,0
9613,4715,365,7349,-392.386,1316.314,7790.071,1973.893,561.161,1045.144,1042.429,-136.000,-2.144,814.791,118.085,0.889,0,0,0,0,0
9713,-2578,1428,9629,-421.843,1326.086,7815.186,1990.831,557.051,1067.666,-294.572,97.714,251.143,169.384,-41.106,225.221,0,0,0,0,0
9813,1878,1714,9106,-383.900,1346.843,7824.700,2008.910,543.892,1076.125,379.429,207.572,95.146,180.786,-131.588,84.596,0,0,0,0,0
9913,-3199,1854,7574,-408.214,1358.343,7831.929,2032.397,545.979,1072.712,-243.143,115.000,72.285,234.875,20.873,-34.132,0,0,0,0,0
10013,1504,2055,7557,-361.714,1364.200,7832.800,2038.370,551.197,1072.464,465.000,58.571,8.711,59.731,52.181,-2.485,0,0,0,0,0
10113,-1706,2412,7319,-361.486,1381.100,7825.057,2038.219,564.762,1074.187,2.286,169.000,-77.427,-1.517,135.643,17.238,0,0,0,0,0
10213,1030,957,9173,-326.243,1381.300,7849.443,2040.644,564.609,1085.080,352.429,2.001,243.857,24.258,-1.526,108.925,0,0,0,0,0
10313,-1386,1755,6970,-318.129,1391.014,7843.329,2035.278,565.105,1088.806,81.143,97.142,-61.143,-53.663,4.960,37.261,0,0,0,0,0
10413,3334,1667,4748,-253.971,1397.043,7798.586,2078.156,565.766,1149.065,641.571,60.286,-447.427,428.776,6.607,602.588,0,0,0,0,0
10513,1745,1161,6685,-200.100,1395.800,7777.771,2080.397,566.187,1155.832,538.714,-12.428,-208.145,22.419,4.214,67.672,0,0,0,0,0
10613,-3450,1760,7735,-219.686,1405.429,7778.529,2104.310,566.568,1155.786,-195.857,96.285,7.573,239.126,3.805,-0.459,0,0,0,0,0
10713,-998,1372,9363,-187.114,1402.943,7757.557,2074.149,566.327,1112.726,325.714,-24.857,-209.717,-301.606,-2.405,-430.603,0,0,0,0,0
10813,2778,1562,6202,-110.814,1396.829,7761.543,2083.562,562.252,1106.630,763.000,-61.143,39.858,94.131,-40.753,-60.955,0,0,0,0,0
10913,3352,-89,8648,-43.343,1389.700,7765.957,2117.851,577.670,1109.537,674.714,-71.287,44.141,342.888,154.183,29.070,0,0,0,0,0
11013,-2209,1839,9260,-20.871,1401.800,7787.657,2086.171,578.084,1123.602,224.714,121.001,217.002,-316.799,4.135,140.647,0,0,0,0,0
11113,-674,1794,10264,-22.857,1416.229,7810.100,2086.726,575.080,1156.664,-19.857,144.285,224.429,5.547,-30.033,330.625,0,0,0,0,0
11213,-1144,467,9717,-22.971,1414.000,7813.443,2086.787,578.442,1161.821,-1.143,-22.285,33.428,0.613,33.620,51.566,0,0,0,0,0
11313,1537,393,7527,42.543,1409.029,7806.643,2062.605,585.656,1162.084,655.143,-49.714,-67.998,-241.819,72.133,2.635,0,0,0,0,0
11413,699,3575,11520,62.671,1448.200,7864.186,2062.038,635.404,1242.055,201.286,391.714,575.425,-5.671,497.485,799.707,0,0,0,0,0
11513,-2825,3200,9055,43.043,1485.029,7882.914,2082.789,660.659,1249.961,-196.286,368.286,187.285,207.502,252.551,79.055,0,0,0,0,0
11613,-1087,1846,6136,53.586,1500.143,7851.300,2075.160,656.630,1265.660,105.429,151.143,-316.143,-76.287,-40.293,156.990,0,0,0,0,0
11713,1578,788,7696,97.243,1491.029,7862.872,2074.625,662.002,1260.474,436.571,-91.143,115.718,-5.349,53.718,-51.862,0,0,0,0,0
11813,-1383,1835,6729,163.171,1489.086,7826.414,1949.431,660.789,1255.827,659.286,-19.429,-364.575,-1251.936,-12.130,-46.467,0,0,0,0,0
11913,423,500,9633,197.629,1481.086,7872.714,1932.328,669.271,1261.820,344.571,-80.000,463.003,-171.036,84.819,59.930,0,0,0,0,0
12013,-2389,3113,6769,167.771,1488.543,7857.343,1955.775,684.335,1268.599,-298.571,74.572,-153.716,234.475,150.638,67.795,0,0,0,0,0
12113,2125,841,8290,189.143,1474.571,7875.957,1968.828,687.422,1265.247,213.714,-139.714,186.143,130.529,30.873,-33.521,0,0,0,0,0
12213,-2008,1458,8451,196.571,1485.329,7867.529,1959.521,681.158,1259.410,74.286,107.572,-84.282,-93.069,-62.637,-58.374,0,0,0,0,0
12313,-559,367,8350,183.943,1479.814,7880.486,1961.501,688.586,1259.641,-126.286,-55.143,129.570,19.794,74.280,2.313,0,0,0,0,0
12413,-791,2282,8478,156.114,1487.343,7884.957,1961.316,694.410,1261.198,-278.286,75.286,44.712,-1.842,58.239,15.568,0,0,0,0,0
12513,1960,1402,7146,177.671,1491.343,7866.257,1972.699,693.099,1262.311,215.571,40.000,-186.997,113.828,-13.107,11.130,0,0,0,0,0
12613,-1345,537,9059,151.700,1479.386,7867.872,1980.591,702.181,1263.762,-259.714,-119.572,16.143,78.921,90.815,14.510,0,0,0,0,0
12713,663,1525,7909,198.229,1475.329,7881.557,1953.615,701.084,1258.937,465.286,-40.571,136.855,-269.758,-10.966,-48.252,0,0,0,0,0
12813,-351,1764,7163,179.557,1493.786,7836.271,1952.530,691.367,1226.538,-186.714,184.572,-452.856,-10.859,-97.175,-323.984,0,0,0,0,0
12913,-2080,1343,6263,153.971,1494.029,7800.686,1970.157,691.311,1235.499,-255.857,2.428,-355.859,176.273,-0.560,89.609,0,0,0,0,0
13013,2077,1433,6472,206.786,1487.071,7818.843,1971.446,689.437,1206.151,528.143,-69.572,181.572,12.894,-18.739,-293.481,0,0,0,0,0
13113,-815,367,9989,168.771,1475.143,7867.729,1965.117,701.386,1223.643,-380.143,-119.286,488.857,-63.293,119.492,174.922,0,0,0,0,0
13213,364,2243,8207,127.357,1501.271,7856.900,1929.699,695.411,1217.222,-414.143,261.287,-108.286,-354.177,-59.751,-64.211,0,0,0,0,0
13313,193,1184,7851,165.986,1505.029,7847.743,1903.383,692.972,1214.819,386.286,37.571,-91.572,-263.160,-24.390,-24.034,0,0,0,0,0
13413,424,1473,6512,160.614,1510.357,7840.429,1902.116,691.269,1221.281,-53.714,53.286,-73.140,-12.671,-17.029,64.619,0,0,0,0,0
13513,-376,1098,7344,144.943,1504.314,7845.829,1901.954,692.996,1218.234,-156.714,-60.428,53.999,-1.625,17.272,-30.465,0,0,0,0,0
13613,155,1465,7952,168.043,1502.400,7847.171,1892.091,692.917,1218.299,231.000,-19.143,13.428,-98.630,-0.791,0.645,0,0,0,0,0
13713,-1535,557,8937,119.786,1485.500,7867.686,1891.833,701.292,1224.372,-482.571,-169.000,205.142,-2.573,83.746,60.731,0,0,0,0,0
13813,1404,1204,8822,117.186,1476.214,7888.543,1889.940,700.654,1228.010,-26.000,-92.858,208.574,-18.928,-6.376,36.382,0,0,0,0,0
13913,-91,574,9172,154.057,1476.357,7923.943,1860.107,700.469,1228.781,368.714,1.429,353.999,-298.335,-1.850,7.711,0,0,0,0,0
14013,1561,1627,6806,128.700,1476.529,7914.814,1828.385,700.504,1234.665,-253.571,1.714,-91.284,-317.214,0.353,58.835,0,0,0,0,0
14113,-2358,1164,8098,79.714,1482.486,7911.357,1848.309,696.034,1233.808,-489.857,59.572,-34.575,199.238,-44.704,-8.567,0,0,0,0,0
14213,1791,1305,9073,125.086,1474.114,7908.457,1850.777,694.593,1230.832,453.714,-83.715,-28.999,24.679,-14.412,-29.761,0,0,0,0,0
14313,1780,800,6620,143.114,1459.386,7896.128,1860.637,697.793,1239.325,180.286,-147.285,-123.286,98.601,31.998,84.927,0,0,0,0,0
14413,-248,409,8631,101.729,1446.029,7935.086,1836.501,708.737,1218.782,-413.857,-133.572,389.575,-241.360,109.438,-205.430,0,0,0,0,0
14513,1215,1729,6492,113.471,1441.471,7911.114,1840.949,705.871,1230.372,117.429,-45.571,-239.717,44.474,-28.655,115.905,0,0,0,0,0
14613,810,242,8975,103.271,1420.429,7931.257,1835.074,719.233,1236.069,-102.000,-210.428,201.431,-58.746,133.618,56.973,0,0,0,0,0
14713,2167,1318,8635,113.014,1428.100,7945.372,1844.172,715.224,1238.382,97.429,76.714,141.143,90.978,-40.085,23.123,0,0,0,0,0
14813,890,450,8233,144.743,1392.171,7930.157,1838.151,700.127,1228.170,317.286,-359.286,-152.144,-60.208,-150.972,-102.113,0,0,0,0,0
14913,226,1430,7741,181.814,1399.500,7928.872,1813.077,697.796,1228.321,370.714,73.286,-12.856,-250.739,-23.312,1.503,0,0,0,0,0
15013,1165,766,8602,151.986,1395.057,7936.929,1779.164,700.819,1230.857,-298.286,-44.429,80.571,-339.135,30.228,25.365,0,0,0,0,0
15113,-55,155,8565,131.229,1368.886,7965.357,1772.971,712.337,1222.022,-207.571,-261.714,284.282,-61.930,115.184,-88.350,0,0,0,0,0
15213,1663,894,6659,188.729,1352.657,7918.957,1756.370,710.027,1209.011,575.000,-162.286,-463.999,-166.006,-23.101,-130.107,0,0,0,0,0
15313,440,169,8379,207.100,1328.500,7941.600,1752.171,721.036,1202.556,183.714,-241.571,226.431,-41.989,110.087,-64.557,0,0,0,0,0
15413,1288,584,8142,182.000,1315.071,7956.157,1723.692,726.006,1198.720,-251.000,-134.286,145.571,-284.796,49.702,-38.359,0,0,0,0,0
15513,2603,-7,6424,237.329,1298.171,7916.043,1738.294,742.625,1202.332,553.286,-169.000,-401.143,146.021,166.194,36.121,0,0,0,0,0
15613,-839,265,7073,225.686,1278.400,7917.586,1742.729,751.394,1201.179,-116.429,-197.714,15.430,44.348,87.682,-11.526,0,0,0,0,0
15713,2112,586,8248,235.529,1267.871,7944.257,1751.388,755.845,1187.413,98.428,-105.286,266.714,86.591,44.516,-137.662,0,0,0,0,0
15813,91,154,10410,217.729,1260.471,7973.157,1746.427,764.133,1221.953,-178.000,-74.000,288.999,-49.602,82.878,345.402,0,0,0,0,0
15913,700,723,7698,238.671,1249.886,7993.628,1743.292,766.370,1205.052,209.429,-105.857,204.712,-31.353,22.366,-169.016,0,0,0,0,0
16013,1775,-799,8105,263.200,1220.543,7998.214,1752.632,804.009,1204.856,245.286,-293.429,45.859,93.397,376.400,-1.956,0,0,0,0,0
16113,283,-591,8241,213.843,1183.071,8006.029,1701.998,826.137,1204.631,-493.572,-374.714,78.145,-506.335,221.272,-2.247,0,0,0,0,0
16213,1290,884,7917,242.829,1174.086,8015.557,1702.802,825.920,1201.247,289.857,-89.857,95.283,8.032,-2.167,-33.845,0,0,0,0,0
16313,-1989,723,8094,213.029,1166.129,8004.786,1723.224,827.543,1197.107,-298.000,-79.572,-107.715,204.221,16.228,-41.394,0,0,0,0,0
16413,2998,-46,8068,291.029,1141.143,8013.214,1723.946,837.302,1195.445,780.000,-249.857,84.287,7.225,97.593,-16.627,0,0,0,0,0
16513,467,-355,7778,296.929,1100.271,8034.829,1723.832,839.506,1177.179,59.000,-408.713,216.143,-1.147,22.037,-182.657,0,0,0,0,0
16613,-1153,761,8029,213.100,1105.929,8044.543,1647.954,835.858,1174.281,-838.286,56.571,97.144,-758.776,-36.476,-28.975,0,0,0,0,0
16713,272,640,7564,253.814,1094.671,8015.043,1613.337,836.751,1159.957,407.143,-112.572,-295.000,-346.172,8.926,-143.240,0,0,0,0,0
16813,1278,-9,8738,245.243,1070.057,8009.786,1606.263,843.485,1155.828,-85.714,-246.143,-52.573,-70.734,67.346,-41.298,0,0,0,0,0
16913,463,1063,6354,297.557,1058.757,7992.357,1551.952,838.189,1171.361,523.143,-112.999,-174.287,-543.118,-52.962,155.336,0,0,0,0,0
17013,1294,386,7441,294.557,1034.914,7990.700,1549.818,833.234,1172.058,-30.000,-238.429,-16.567,-21.334,-49.547,6.964,0,0,0,0,0
17113,-2022,1749,7452,290.043,1025.443,7992.600,1556.086,821.209,1171.075,-45.143,-94.714,18.999,62.681,-120.258,-9.829,0,0,0,0,0
17213,-526,455,10652,267.814,1018.271,8013.729,1556.471,823.962,1205.031,-222.285,-71.714,211.284,3.846,27.537,339.561,0,0,0,0,0
17313,-2982,814,8531,245.014,1004.829,8036.029,1591.818,819.497,1199.942,-228.000,-134.429,223.003,353.470,-44.653,-50.885,0,0,0,0,0
17413,677,711,6081,207.057,991.171,8055.071,1548.805,816.308,1157.435,-379.571,-136.571,190.425,-430.127,-31.893,-425.071,0,0,0,0,0
17513,917,329,7221,195.229,979.286,8062.729,1540.152,819.798,1150.096,-118.286,-118.857,76.572,-86.533,34.904,-73.396,0,0,0,0,0
17613,-443,100,8462,238.186,955.571,8073.114,1478.587,820.880,1150.372,429.571,-237.143,103.857,-615.653,10.819,2.762,0,0,0,0,0
17713,-865,1377,7296,240.086,955.643,8043.586,1477.081,820.917,1143.391,19.000,0.715,-295.283,-15.054,0.365,-69.812,0,0,0,0,0
17813,1252,730,7450,218.286,943.757,8061.414,1450.485,818.070,1124.103,-218.000,-118.857,178.281,-265.958,-28.470,-192.872,0,0,0,0,0
17913,511,1220,7762,177.700,962.457,8048.757,1401.141,809.161,1122.414,-405.857,187.000,-126.567,-493.440,-89.088,-16.892,0,0,0,0,0
18013,862,641,7929,221.571,945.343,8029.743,1373.530,803.087,1112.968,438.714,-171.143,-190.146,-276.111,-60.739,-94.459,0,0,0,0,0
18113,-1599,-854,8130,208.357,907.514,7999.257,1386.471,824.306,1080.092,-132.143,-378.286,-304.854,129.410,212.192,-328.760,0,0,0,0,0
18213,-1349,-1290,7910,205.429,882.414,7973.443,1389.538,863.172,1060.139,-29.286,-251.000,-258.145,30.664,388.655,-199.532,0,0,0,0,0
18313,1390,-29,10301,203.329,876.386,8013.071,1387.634,868.029,1094.016,-21.000,-60.286,396.284,-19.039,48.571,338.765,0,0,0,0,0
18413,2028,897,9818,222.314,838.129,7988.757,1403.289,804.972,1033.018,189.857,-382.571,-243.140,156.553,-630.565,-609.979,0,0,0,0,0
18513,-4514,1634,8015,198.186,815.757,7973.900,1468.484,759.498,1025.023,-241.286,-223.715,-148.574,651.952,-454.747,-79.941,0,0,0,1,0
18613,-618,1700,6619,204.886,813.671,7980.800,1463.667,756.861,1014.197,67.000,-20.857,68.999,-48.173,-26.363,-108.267,0,0,0,0,0
18713,-1213,-134,7143,165.014,800.500,7972.900,1463.734,765.170,1018.529,-398.714,-131.714,-78.999,0.668,83.091,43.322,0,0,0,0,0
18813,-316,696,7286,180.257,784.229,7980.857,1453.051,755.042,1010.927,152.429,-162.714,79.570,-106.830,-101.283,-76.016,0,0,0,0,0
18913,2192,-875,7859,205.529,764.586,7955.514,1472.308,779.665,991.237,252.714,-196.429,-253.428,192.574,246.232,-196.907,0,0,0,0,0
19013,-1815,157,7063,213.729,722.357,7959.714,1459.377,729.782,986.813,82.000,-422.286,42.002,-129.313,-498.831,-44.234,0,0,0,0,0
19113,1994,531,7370,211.857,717.929,7946.571,1457.007,729.989,988.452,-18.714,-44.285,-131.431,-23.701,2.072,16.388,0,0,0,0,0
19213,-1923,150,6218,213.071,699.243,7914.671,1455.191,727.543,1007.507,12.143,-186.857,-318.999,-18.163,-24.465,190.547,0,0,0,0,0
19313,3460,-386,7260,270.486,688.486,7899.100,1502.124,737.869,1009.080,574.143,-107.571,-155.713,469.332,103.264,15.734,0,0,0,0,0
19413,-3545,376,10140,231.143,661.257,7922.843,1564.194,713.323,1041.455,-393.429,-272.286,237.427,620.699,-245.467,323.751,0,0,0,0,0
19513,485,635,8491,210.071,650.300,7942.057,1550.639,707.729,1039.351,-210.714,-109.572,192.144,-135.553,-55.936,-21.044,0,0,0,0,0
19613,-2308,26,5584,196.314,643.000,7892.414,1568.542,711.485,1067.426,-137.571,-73.000,-496.431,179.037,37.562,280.751,0,0,0,0,0
19713,3976,-808,9386,243.643,609.671,7913.514,1630.662,723.923,1082.043,473.286,-333.286,211.001,621.202,124.379,146.173,0,0,0,0,0
19813,-2962,-315,7823,206.343,579.971,7922.943,1673.147,718.583,1078.332,-373.000,-297.000,94.287,424.841,-53.400,-37.117,0,0,0,0,0
19913,3345,-1277,8112,283.843,542.543,7949.357,1690.996,745.591,1059.835,775.000,-374.286,264.141,178.492,270.077,-184.971,0,0,0,0,0
20013,-1442,607,8186,233.571,530.743,7973.843,1689.247,737.901,1045.117,-502.714,-118.000,244.858,-17.487,-76.895,-147.175,0,0,0,0,0
20113,359,-1101,8518,250.343,509.771,7952.829,1684.575,762.701,1018.846,167.714,-209.714,-210.142,-46.724,247.994,-262.716,0,0,0,0,0
20213,-3362,-201,7205,197.114,474.857,7938.514,1738.157,738.102,1022.207,-532.286,-349.143,-143.145,535.819,-245.984,33.617,0,0,0,0,0
20313,3111,-402,7336,238.800,452.200,7931.157,1772.215,740.325,1024.661,416.857,-226.571,-73.569,340.586,22.231,24.539,0,0,0,0,0
20413,-3675,-1331,11300,180.243,412.143,7999.557,1831.845,759.616,1085.638,-585.571,-400.572,683.999,596.293,192.907,609.769,0,0,0,0,0
20513,-2284,1003,8709,152.986,410.786,8019.057,1853.980,758.474,1085.947,-272.571,-13.571,195.000,221.354,-11.426,3.090,0,0,0,0,0
20613,-564,1594,5327,142.714,412.629,7981.557,1855.931,761.185,1131.964,-102.714,18.429,-375.000,19.508,27.111,460.165,0,0,0,0,0
20713,-3522,735,8240,114.329,415.171,7971.600,1896.134,761.960,1126.568,-283.857,25.428,-99.570,402.028,7.749,-53.955,0,0,0,0,0
20813,560,971,7170,102.271,411.843,7948.000,1890.570,759.010,1125.809,-120.571,-33.286,-236.001,-55.638,-29.500,-7.588,0,0,0,0,0
20913,151,-547,8201,105.729,395.829,7934.128,1890.434,767.201,1116.587,34.571,-160.143,-138.716,-1.353,81.915,-92.223,0,0,0,0,0
21013,-751,-1419,8455,72.700,352.314,7957.686,1884.909,782.369,1109.913,-330.286,-435.143,235.571,-55.254,151.681,-66.743,0,0,0,0,0
21113,-2378,-97,7504,72.414,334.300,7949.200,1885.279,777.977,1111.078,-2.857,-180.143,-84.854,3.699,-43.918,11.649,0,0,0,0,0
21213,1306,-1447,5733,65.486,294.986,7901.486,1879.834,797.227,1133.287,-69.286,-393.143,-477.144,-54.453,192.500,222.095,0,0,0,0,0
21313,4264,-2721,9587,100.971,244.686,7943.872,1934.514,871.403,1140.030,354.857,-503.000,423.857,546.801,741.757,67.430,0,1,0,0,0
21413,-1195,-3166,10000,87.443,193.614,7963.429,1940.210,960.485,1163.158,-135.286,-510.714,195.571,56.963,890.822,231.277,0,0,0,0,0
21513,2478,-2488,9065,105.486,133.371,8000.186,1956.417,993.959,1156.715,180.429,-602.429,367.568,162.065,334.738,-64.426,0,0,0,0,0
21613,-1580,-1643,8331,71.343,106.443,7990.986,1964.661,1015.943,1151.474,-341.429,-269.286,-91.997,82.445,219.838,-52.407,0,0,0,0,0
21713,2165,-1555,10452,71.314,65.400,8016.943,1964.631,1024.168,1185.672,-0.286,-410.429,259.570,-0.304,82.249,341.974,0,0,0,0,0
21813,-1245,-754,8095,40.814,48.200,8014.971,1968.253,1027.668,1185.425,-305.000,-172.000,-19.717,36.227,35.007,-2.463,0,0,0,0,0
21913,-2216,217,7396,5.929,30.871,8010.043,1986.221,1014.363,1187.270,-348.857,-173.286,-49.282,179.677,-133.053,18.446,0,0,0,0,0
22013,2139,-1063,8536,19.843,4.743,8009.100,1997.671,1018.638,1186.826,139.143,-261.286,-9.429,114.498,42.748,-4.443,0,0,0,0,0
22113,-1525,-475,7072,-1.157,-4.257,7987.771,2006.056,1020.053,1190.055,-210.000,-90.000,-213.286,83.853,14.148,32.292,0,0,0,0,0
22213,-1714,362,7376,-49.400,-11.857,7998.014,2006.061,1015.303,1181.630,-482.429,-76.000,102.427,0.051,-47.501,-84.250,0,0,0,0,0
22313,-1786,-290,8731,-81.200,-18.414,8003.043,2015.671,1015.596,1183.987,-318.000,-65.571,50.288,96.101,2.930,23.573,0,0,0,0,0
22413,2946,-194,8627,-57.514,-29.529,8009.971,2041.201,1013.196,1186.197,236.857,-111.143,69.282,255.299,-23.992,22.100,0,0,0,0,0
22513,-2393,-351,9616,-128.886,-34.443,8055.571,2034.259,1013.909,1185.706,-713.714,-49.143,456.001,-69.420,7.128,-4.912,0,0,0,0,0
22613,114,722,5210,-115.271,-27.914,8028.957,2032.649,1017.282,1227.629,136.143,65.286,-266.143,-16.097,33.727,419.233,0,0,0,0,0
22713,2564,-1139,7408,-108.814,-52.557,8016.957,2040.418,1022.989,1229.534,64.571,-246.429,-120.000,77.684,57.075,19.043,0,0,0,0,0
22813,-1223,324,8380,-127.586,-50.129,7987.957,2044.533,1023.678,1196.238,-187.714,24.286,-290.000,41.156,6.889,-332.957,0,0,0,0,0
22913,-3101,600,8541,-181.886,-51.886,8000.000,2072.121,1022.455,1197.501,-543.000,-17.571,120.430,275.879,-12.237,12.629,0,0,0,0,0
23013,-1732,711,7766,-231.986,-30.314,7995.157,2066.591,1022.393,1197.752,-501.000,215.714,-48.428,-55.305,-0.611,2.511,0,0,0,0,0
23113,-1670,-250,5751,-259.886,-25.443,7959.586,2072.624,1020.521,1226.551,-279.000,48.714,-355.713,60.334,-18.726,287.991,0,0,0,0,0
23213,671,395,7422,-268.729,-32.429,7952.514,2067.307,1015.935,1228.202,-88.429,-69.857,-70.718,-53.176,-45.858,16.508,0,0,0,0,0
23313,-1286,-1232,9831,-258.686,-60.357,7977.329,2060.622,1021.640,1248.194,100.429,-279.286,248.145,-66.848,57.049,199.923,0,0,0,0,0
23413,393,236,6728,-295.900,-56.329,7958.186,2024.680,1022.244,1256.902,-372.143,40.286,-191.431,-359.417,6.044,87.079,0,0,0,0,0
23513,-852,139,8013,-314.743,-49.271,7961.543,2023.630,1021.863,1256.730,-188.429,70.571,33.574,-10.505,-3.811,-1.722,0,0,0,0,0
23613,-1465,1583,7663,-319.200,-37.529,7956.314,2025.814,1035.736,1257.200,-44.572,117.429,-52.285,21.843,138.727,4.698,0,0,0,0,0
23713,503,463,7737,-315.900,-40.057,7958.786,2026.962,1034.294,1256.596,33.000,-25.286,24.712,11.478,-14.420,-6.038,0,0,0,0,0
23813,501,1102,9340,-327.000,-24.186,7967.386,2020.320,1043.135,1263.938,-111.000,158.714,86.001,-66.420,88.413,73.419,0,0,0,0,0
23913,3428,4,7529,-284.643,-39.314,7984.171,2066.981,1034.905,1250.127,423.571,-151.286,167.856,466.614,-82.302,-138.112,0,0,0,0,0
24013,-3676,698,9889,-355.643,-34.857,8019.143,2096.681,1037.396,1268.547,-710.000,44.571,349.717,297.002,24.908,184.209,0,0,0,0,0
24113,-521,1491,7818,-334.200,-38.543,8024.372,2087.184,1031.493,1266.952,214.428,-36.857,52.285,-94.976,-59.027,-15.953,0,0,0,0,0
24213,-2684,62,9763,-365.029,-44.157,8011.671,2105.645,1029.860,1244.811,-308.286,-56.143,-127.002,184.609,-16.333,-221.407,0,0,0,0,0
24313,761,-442,6224,-311.557,-62.100,7978.714,2085.943,1025.685,1261.059,534.714,-179.429,-329.570,-197.019,-41.747,162.477,0,0,0,0,0
24413,-1655,787,6526,-344.871,-61.014,7985.071,2088.509,1026.543,1252.570,-333.143,10.857,63.569,25.662,8.575,-84.895,0,0,0,0,0
24513,-574,1237,7455,-366.171,-48.043,7988.414,2083.127,1037.072,1250.837,-213.000,129.714,33.428,-53.816,105.292,-17.327,0,0,0,0,0
24613,5789,-660,9707,-277.143,-58.900,8006.200,2207.406,1039.441,1266.202,890.286,-108.571,177.861,1242.781,23.687,153.646,0,0,0,0,0
24713,413,118,14142,-258.886,-76.886,8104.000,2207.753,1025.234,1457.506,182.571,-179.857,977.998,3.474,-142.061,1913.049,0,0,0,0,1
24813,-989,68,9657,-290.900,-86.343,8135.529,2201.852,1020.792,1466.859,-320.143,-94.571,315.288,-59.006,-44.428,93.525,0,0,0,0,0
24913,1275,1059,7847,-279.986,-88.643,8136.743,2207.686,1018.023,1466.585,109.143,-23.000,12.139,58.333,-27.684,-2.744,0,0,0,0,0
25013,-599,-472,8870,-300.857,-104.543,8150.186,2203.693,1015.191,1468.929,-208.714,-159.000,134.429,-39.922,-28.325,23.447,0,0,0,0,0
25113,-1217,433,7420,-295.400,-86.157,8140.043,2200.943,1013.103,1471.483,54.572,183.857,-101.426,-27.502,-20.875,25.535,0,0,0,0,0
25213,3705,-414,11566,-223.200,-73.643,8192.271,2247.598,1003.521,1526.254,722.000,125.143,522.285,466.548,-95.826,547.715,0,0,0,0,0
25313,4599,-1712,7842,-177.357,-97.686,8157.143,2311.842,1022.151,1505.472,458.428,-240.429,-351.284,642.439,186.305,-207.825,0,0,0,0,0
25413,-3804,-75,7309,-260.671,-111.571,8121.300,2335.826,1015.122,1495.337,-833.143,-138.857,-358.433,239.846,-70.287,-101.353,0,0,0,0,0
25513,542,897,7588,-188.443,-122.100,8115.200,2280.708,1000.682,1496.628,722.286,-105.286,-60.996,-551.182,-144.401,12.915,0,0,0,0,0
25613,3412,-1332,6176,-130.871,-165.414,8108.872,2319.670,986.394,1503.861,575.714,-433.143,-63.286,389.619,-142.888,72.327,0,0,0,0,0
25713,-1084,346,6497,-129.029,-158.557,8099.643,2318.860,988.255,1511.721,18.429,68.571,-92.285,-8.098,18.611,78.604,0,0,0,0,0
25813,3909,-464,8957,-68.671,-175.129,8123.514,2367.681,983.500,1511.878,603.571,-165.714,238.711,488.203,-47.543,1.566,0,0,0,0,0
25913,1231,-1321,10205,-82.400,-181.500,8157.029,2357.296,989.441,1531.517,-137.286,-63.714,335.146,-103.848,59.404,196.396,0,0,0,0,0
26013,-2581,1214,6505,-93.343,-166.400,8149.057,2367.071,1002.471,1538.627,-109.429,151.000,-79.717,97.754,130.301,71.093,0,0,0,0,0
26113,1065,1027,6787,-106.614,-159.314,8140.729,2357.917,1009.106,1544.388,-132.714,70.857,-83.286,-91.538,66.354,57.615,0,0,0,0,0
26213,4113,140,5516,-20.386,-159.457,8130.700,2399.909,1009.063,1559.051,862.286,-1.429,-100.283,419.919,-0.432,146.625,0,0,0,0,0
26313,-2089,354,13997,-99.657,-148.886,8226.942,2375.157,1010.510,1703.575,-792.714,105.714,962.422,-247.527,14.465,1445.242,0,0,0,0,0
26413,-552,932,6800,-56.900,-140.943,8179.229,2339.420,1016.770,1696.083,427.571,79.429,-477.139,-357.363,62.603,-74.922,0,0,0,0,0
26513,-764,468,6543,-74.743,-143.329,8151.400,2339.982,1015.141,1706.687,-178.429,-23.857,-278.286,5.615,-16.288,106.040,0,0,0,0,0
26613,3174,585,6811,3.571,-135.343,8168.929,2355.612,1018.635,1686.408,783.143,79.857,175.288,156.304,34.935,-202.781,0,0,0,0,0
26713,-3677,743,9363,-105.757,-113.186,8168.600,2346.284,1020.629,1686.173,-1093.286,221.571,-3.286,-93.281,19.941,-2.350,0,0,0,0,0
26813,1771,738,10768,-38.143,-98.143,8210.672,2331.148,1025.292,1713.544,676.143,150.429,420.718,-151.362,46.638,273.704,0,0,0,0,0
26913,-850,-1,9900,-98.071,-79.914,8236.214,2297.078,1015.467,1725.169,-599.286,182.286,255.420,-340.701,-98.251,116.256,0,0,0,0,0
27013,2525,1004,6152,-41.400,-74.243,8207.157,2312.108,1020.385,1742.810,566.714,56.714,-290.566,150.305,49.175,176.401,0,0,0,0,0
27113,-1719,1935,6014,-71.086,-30.871,8171.386,2320.103,1040.152,1761.658,-296.857,433.714,-357.715,79.946,197.669,188.486,0,0,0,0,0
27213,97,516,8365,-21.671,-20.629,8187.957,2286.072,1041.955,1757.942,494.143,102.429,165.713,-340.310,18.030,-37.166,0,0,0,0,0
27313,-489,38,10964,-73.100,-14.343,8239.786,2255.306,1040.962,1785.328,-514.286,62.857,518.291,-307.664,-9.928,273.861,0,0,0,0,0
27413,890,212,9317,-7.886,7.700,8211.457,2215.866,1029.117,1751.966,652.143,220.429,-283.291,-394.392,-118.447,-333.619,0,0,0,0,0
27513,-1198,-418,9645,7.629,-12.600,8224.828,2203.644,1023.283,1759.269,155.143,-203.000,133.711,-122.224,-58.348,73.032,0,0,0,0,0
27613,-209,151,6860,12.700,-33.214,8246.729,2202.731,1005.083,1732.396,50.714,-206.143,219.004,-9.131,-181.998,-268.732,0,0,0,0,0
27713,-845,1658,6730,50.943,-20.029,8225.157,2163.928,1021.003,1741.721,382.429,131.857,-215.713,-388.030,159.201,93.256,0,0,0,0,0
27813,3633,283,9586,94.843,-29.857,8259.672,2204.599,1014.707,1744.406,439.000,-98.286,345.146,406.707,-62.953,26.846,0,0,0,0,0
27913,-1970,1462,10669,64.543,-1.157,8294.929,2218.153,1027.999,1767.650,-303.000,287.000,352.568,135.542,132.916,232.441,0,0,0,0,0
28013,250,1068,6366,78.843,34.371,8265.086,2216.074,1021.338,1782.269,143.000,355.286,-298.428,-20.784,-66.611,146.193,0,0,0,0,0
28113,4607,-61,5908,178.629,34.886,8242.286,2260.026,1021.281,1801.960,997.857,5.143,-227.998,439.512,-0.573,196.903,0,0,0,0,0
28213,-4745,1232,6072,92.186,73.157,8247.129,2329.894,1015.210,1795.654,-864.429,382.714,48.428,698.679,-60.707,-63.060,0,0,0,1,0
28313,1503,-230,9082,52.743,108.743,8239.914,2281.809,958.731,1791.265,-394.429,355.857,-72.148,-480.845,-564.792,-43.883,0,0,0,0,0
28413,-342,929,10938,64.929,167.243,8253.314,2277.386,878.723,1807.814,121.857,585.000,134.004,-44.226,-800.073,165.485,0,0,0,0,0
28513,-813,744,8037,17.914,213.414,8238.629,2260.997,821.009,1805.334,-470.143,461.714,-146.855,-163.899,-577.141,-24.795,0,0,0,0,0
28613,1117,1519,7871,56.443,258.586,8232.058,2256.414,804.447,1805.823,385.286,451.714,-65.713,-45.830,-165.627,4.891,0,0,0,0,0
28713,-1554,361,6645,3.314,285.957,8177.671,2249.915,774.305,1795.444,-531.286,273.714,-543.862,-64.990,-301.418,-103.792,0,0,0,0,0
28813,1211,196,6297,38.400,299.529,8151.986,2249.324,764.218,1809.251,350.857,135.714,-256.855,-5.906,-100.868,138.070,0,0,0,0,0
28913,-696,751,12033,60.114,307.157,8218.229,2234.746,766.019,1864.407,217.143,76.286,662.427,-145.784,18.011,551.554,0,0,0,0,0
29013,-971,286,7479,15.686,326.429,8203.129,2223.862,748.065,1866.052,-444.286,192.714,-150.996,-108.835,-179.540,16.450,0,0,0,0,0
29113,2288,610,5947,70.157,341.929,8187.057,2232.140,742.519,1880.513,544.714,155.000,-160.718,82.778,-55.463,144.612,0,0,0,0,0
29213,-1811,1407,4868,68.771,356.857,8151.229,2233.277,753.201,1919.120,-13.857,149.286,-358.286,11.370,106.816,386.068,0,0,0,0,0
29313,2049,1828,6351,123.557,387.114,8117.229,2234.144,768.984,1929.601,547.857,302.571,-340.000,8.667,157.832,104.813,0,0,0,0,0
29413,-2257,2853,8225,49.229,430.643,8111.486,2225.540,819.440,1928.673,-743.286,435.286,-57.427,-86.038,504.567,-9.277,1,0,0,0,0
29513,-1365,-1089,9266,63.914,420.100,8106.486,2212.731,834.047,1925.217,146.857,-105.428,-50.000,-128.088,146.061,-34.559,0,0,0,0,0
29613,70,-985,6353,63.286,395.714,8122.814,2212.723,849.671,1905.326,-6.286,-243.857,163.286,-0.083,156.248,-198.912,0,0,0,0,0
29713,1663,222,7181,50.414,415.157,8119.571,2200.727,829.667,1906.732,-128.714,194.428,-32.432,-119.961,-200.048,14.062,0,0,0,0,0
29813,3812,-766,6711,122.343,399.586,8095.729,2239.865,841.377,1913.749,719.286,-155.714,-238.428,391.387,117.109,70.167,0,0,0,0,0
29913,-1724,251,11045,142.014,394.600,8131.500,2217.404,841.209,1944.887,196.714,-49.857,357.715,-224.612,-1.685,311.375,0,0,0,0,0
30013,-3347,1151,8025,118.943,400.886,8135.200,2245.012,845.184,1944.434,-230.714,62.857,37.002,276.084,39.753,-4.528,0,0,0,0,0
30113,-1081,767,6500,127.357,415.414,8145.900,2239.388,842.608,1933.313,84.143,145.286,106.997,-56.240,-25.763,-111.204,0,0,0,0,0
30213,3393,-2257,8582,166.243,377.529,8162.471,2271.888,900.318,1932.009,388.857,-378.857,165.713,324.995,577.100,-13.049,0,0,0,0,0
30313,-3334,-106,8059,136.986,393.614,8137.157,2303.370,881.275,1921.561,-292.571,160.857,-253.140,314.822,-190.432,-104.473,0,0,0,0,0
30413,-867,-583,8412,118.986,381.914,8161.214,2306.221,888.695,1914.297,-180.000,-117.000,240.571,28.506,74.202,-72.648,0,0,0,0,0
30513,1006,-208,7220,145.529,376.957,8149.886,2305.584,891.001,1917.484,265.428,-49.571,-113.286,-6.362,23.059,31.874,0,0,0,0,0
30613,2816,-2609,7087,206.686,317.071,8141.657,2318.793,947.042,1920.789,611.572,-598.857,-82.285,132.090,560.407,33.049,0,0,0,0,0
30713,59,-723,8219,200.343,300.129,8148.543,2318.582,954.856,1920.189,-63.429,-169.429,68.857,-2.117,78.145,-5.994,0,0,0,0,0
30813,-1017,-1374,8218,178.657,264.757,8132.514,2322.763,970.233,1914.852,-216.857,-353.714,-160.288,41.814,153.768,-53.370,0,0,0,0,0
30913,-766,-1998,9067,118.743,236.157,8154.486,2292.064,1006.333,1916.625,-599.143,-286.000,219.717,-306.992,361.003,17.723,0,0,0,0,0
31013,-1645,-1706,8761,147.757,201.814,8138.372,2256.422,1030.711,1906.690,290.143,-343.429,-161.143,-356.423,243.778,-99.349,0,0,0,0,0
31113,976,-924,6169,169.143,167.314,8114.814,2257.076,1027.394,1920.638,213.857,-345.000,-235.571,6.543,-33.170,139.481,0,0,0,0,0
31213,993,-1641,7211,221.671,142.986,8078.357,2232.720,1049.525,1913.213,525.286,-243.286,-364.575,-243.562,221.310,-74.250,0,0,0,0,0
31313,-94,-799,7784,209.457,137.886,8100.643,2232.074,1053.216,1900.527,-122.143,-51.000,222.861,-6.453,36.910,-126.860,0,0,0,0,0
31413,-1246,-196,9304,215.300,123.843,8140.329,2227.717,1051.019,1896.231,58.429,-140.429,396.855,-43.572,-21.974,-42.959,0,0,0,0,0
31513,-141,-443,6332,221.486,99.843,8124.286,2226.117,1044.487,1906.683,61.857,-240.000,-160.430,-15.999,-65.317,104.521,0,0,0,0,0
31613,-922,-1484,7524,125.614,88.071,8093.100,2126.563,1057.546,1898.376,-958.714,-117.714,-311.855,-995.544,130.587,-83.075,0,0,0,0,0
31713,632,-1221,7305,128.743,68.943,7995.429,2127.145,1068.880,1755.124,31.286,-191.286,-976.714,5.818,113.346,-1432.515,0,0,0,0,0
31813,-1474,-717,8249,121.814,57.729,7975.314,2131.559,1072.942,1744.000,-69.286,-112.143,-201.143,44.143,40.613,-111.246,0,0,0,0,0
31913,-458,-1576,9954,97.057,20.086,8005.414,2128.083,1083.326,1759.637,-247.571,-376.429,300.996,-34.761,103.839,156.379,0,0,0,0,0
32013,1435,-2420,8988,126.114,-7.743,8007.100,2132.263,1120.008,1760.521,290.571,-278.286,16.860,41.797,366.825,8.839,0,0,0,0,0
32113,-2122,-962,7301,113.186,-27.671,8005.400,2143.084,1124.391,1761.145,-129.286,-199.286,-17.002,108.210,43.827,6.234,0,0,0,0,0
32213,291,-215,7688,64.414,-24.829,7950.000,2099.185,1123.662,1708.475,-487.714,28.429,-553.999,-438.984,-7.290,-526.693,0,0,0,0,0
32313,479,-187,7509,5.557,-3.043,7945.243,2027.762,1105.374,1709.233,-588.571,217.857,-47.573,-714.232,-182.877,7.576,0,0,0,0,0
32413,-2671,-870,9438,21.743,-14.400,7975.657,2001.643,1110.129,1716.567,161.857,-113.571,304.146,-261.187,47.548,73.342,0,0,0,0,0
32513,1852,-854,7855,40.457,-39.414,7979.471,2012.514,1109.037,1715.998,187.143,-250.143,38.140,108.705,-10.913,-5.692,0,0,0,0,0
32613,-53,-863,7970,-9.043,-32.714,8005.100,1971.167,1102.607,1702.213,-495.000,67.000,256.289,-413.474,-64.308,-137.849,0,0,0,0,0
32713,-736,1,6573,-4.071,-37.643,8006.186,1968.887,1101.673,1701.274,49.714,-49.286,10.854,-22.799,-9.332,-9.387,0,0,0,0,0
32813,1204,-2275,7913,-42.714,-63.514,7991.271,1917.583,1132.223,1697.446,-386.429,-258.714,-149.141,-513.036,305.494,-38.287,0,0,0,0,0
32913,-29,-1726,8800,-60.714,-69.300,7971.200,1911.447,1139.645,1679.361,-180.000,-57.857,-200.713,-61.362,74.216,-180.842,0,0,0,0,0
33013,-125,-950,8870,-25.629,-100.214,8004.986,1887.251,1133.750,1673.303,350.857,-309.143,337.856,-241.959,-58.950,-60.583,0,0,0,0,0
33113,-927,-436,7023,-54.086,-121.114,8008.357,1885.609,1126.237,1671.082,-284.571,-209.000,33.711,-16.421,-75.123,-22.214,0,0,0,0,0
33213,-1575,465,4301,-135.343,-116.471,7991.000,1825.896,1127.973,1702.886,-812.571,46.429,-173.569,-597.125,17.355,318.048,0,0,0,0,0
33313,932,-401,6438,-92.186,-127.257,7883.014,1814.879,1127.031,1551.548,431.571,-107.857,-1079.858,-110.176,-9.412,-1513.385,0,0,0,0,0
33413,-608,-1645,7514,-92.986,-164.071,7893.214,1815.093,1133.898,1546.734,-8.000,-368.143,102.002,2.147,68.661,-48.140,0,0,0,0,0
33513,-1442,-993,8896,-102.671,-184.943,7926.829,1820.449,1135.516,1542.588,-96.857,-208.714,336.143,53.557,16.187,-41.459,0,0,0,0,0
33613,-783,-322,7448,-159.200,-197.900,7935.929,1778.784,1131.825,1537.850,-565.286,-129.571,91.001,-416.650,-36.909,-47.378,0,0,0,0,0
33713,672,-1231,7906,-97.071,-226.100,7915.114,1730.115,1132.622,1528.224,621.286,-282.000,-208.145,-486.691,7.970,-96.259,0,0,0,0,0
33813,644,-857,8329,-113.171,-248.886,7880.271,1717.857,1129.036,1490.112,-161.000,-227.857,-348.428,-122.583,-35.865,-381.129,0,0,0,0,0
33913,-40,34,7681,-101.600,-248.386,7848.571,1715.581,1129.153,1470.279,115.714,5.000,-317.002,-22.756,1.176,-198.330,0,0,0,0,0
34013,219,254,7541,-134.543,-259.100,7868.414,1686.726,1120.746,1456.557,-329.429,-107.143,198.428,-288.552,-84.073,-137.218,0,0,0,0,0
34113,-121,-102,9151,-111.714,-288.200,7913.229,1675.906,1089.406,1447.040,228.286,-291.000,448.145,-108.201,-313.403,-95.172,0,0,0,0,0
34213,193,1638,8018,-110.343,-272.171,7908.271,1676.115,1109.194,1446.077,13.714,160.286,-49.570,2.096,197.887,-9.624,0,0,0,0,0
34313,731,2224,6905,-92.914,-240.943,7850.286,1678.429,1147.595,1403.126,174.286,312.286,-579.858,23.132,384.009,-429.507,0,0,0,0,0
34413,2199,2112,8061,-74.214,-213.800,7832.343,1696.471,1179.999,1392.244,187.000,271.429,-179.429,180.420,324.039,-108.822,0,0,0,0,0
34513,-1005,258,6837,-71.457,-204.143,7792.229,1694.798,1181.054,1379.836,27.571,96.572,-401.143,-16.729,10.551,-124.078,0,0,0,0,0
34613,-1055,1518,8210,-83.543,-184.614,7811.514,1698.748,1197.946,1376.102,-120.857,195.286,192.856,39.498,168.916,-37.349,0,0,0,0,0
34713,138,1743,7553,-69.500,-183.400,7823.271,1696.457,1199.854,1370.315,140.429,12.143,117.573,-22.906,19.086,-57.869,0,0,0,0,0
34813,-2047,1528,7263,-150.643,-165.614,7790.086,1652.698,1215.758,1355.270,-811.429,177.857,-331.855,-437.594,159.041,-150.447,0,0,0,0,0
34913,1056,1100,8452,-107.414,-170.786,7758.414,1644.097,1209.578,1312.864,432.286,-51.714,-316.719,-86.007,-61.804,-424.065,0,0,0,0,0
35013,67,1301,7381,-110.029,-167.457,7772.914,1643.672,1213.297,1302.972,-26.143,33.286,145.000,-4.252,37.194,-98.911,0,0,0,0,0
35113,-1057,273,8275,-190.943,-162.686,7806.729,1545.981,1214.363,1284.722,-809.143,47.714,338.145,-976.907,10.656,-182.502,0,0,0,0,0
35213,1238,513,7932,-105.471,-172.957,7833.300,1454.525,1205.531,1267.691,854.714,-102.714,265.713,-914.556,-88.315,-170.315,0,0,0,0,0
35313,-1536,1060,8253,-148.886,-154.529,7821.457,1451.218,1214.346,1259.818,-434.143,184.286,-118.428,-33.075,88.149,-78.730,0,0,0,0,0
35413,982,735,7509,-129.971,-157.300,7772.471,1457.194,1212.089,1203.071,189.143,-27.714,-489.858,59.758,-22.568,-567.462,0,0,0,0,0
35513,-1365,-844,7027,-137.857,-179.986,7758.043,1462.353,1209.867,1205.866,-78.857,-226.857,-144.282,51.593,-22.225,27.942,0,0,0,0,0
35613,-310,1065,4147,-158.243,-186.471,7704.843,1454.644,1201.933,1279.601,-203.857,-64.857,-532.002,-77.092,-79.343,737.358,0,0,0,0,0
35713,-2136,2351,9624,-166.557,-158.043,7747.400,1464.230,1237.552,1293.112,-83.143,284.286,425.571,95.858,356.191,135.105,0,0,0,0,0
35813,-1100,1402,7396,-199.571,-140.814,7763.100,1458.841,1250.686,1282.031,-330.143,172.286,157.002,-53.888,131.339,-110.807,0,0,0,0,0
35913,2240,260,8215,-157.629,-147.829,7708.557,1485.920,1247.036,1176.048,419.429,-70.143,-545.430,270.790,-36.497,-1059.834,0,0,0,0,0
36013,-550,1133,8312,-151.614,-135.729,7720.457,1483.466,1255.269,1177.878,60.143,121.000,118.999,-24.541,82.327,18.300,0,0,0,0,0
36113,-467,683,7503,-190.971,-134.686,7742.686,1454.482,1255.918,1158.727,-393.571,10.429,222.285,-289.839,6.493,-191.512,0,0,0,0,0
36213,1276,1009,6179,-146.871,-140.371,7761.414,1451.490,1249.812,1122.128,441.000,-56.857,187.285,-29.919,-61.063,-365.985,0,0,0,0,0
36313,-732,832,8270,-186.600,-154.600,7788.829,1428.724,1232.876,1110.719,-397.286,-142.286,274.146,-227.659,-169.352,-114.087,0,0,0,0,0
36413,2097,-1318,10890,-124.400,-214.186,7826.900,1432.007,1185.979,1169.153,622.000,-595.857,380.713,32.832,-468.976,584.340,0,0,0,0,0
36513,-256,-2104,11817,-108.557,-228.686,7863.343,1424.308,1202.673,1250.379,158.429,-145.000,364.429,-76.990,166.942,812.253,0,0,0,0,0
36613,-543,-612,7566,-117.314,-223.357,7880.671,1425.068,1200.134,1237.668,-87.571,53.286,173.286,7.595,-25.392,-127.107,0,0,0,0,0
36713,2398,-329,6482,-106.814,-231.229,7870.686,1440.768,1198.994,1246.064,105.000,-78.714,-99.858,157.000,-11.401,83.962,0,0,0,0,0
36813,-1899,1160,9622,-188.400,-203.714,7912.271,1376.827,1208.468,1255.209,-815.857,275.143,415.859,-639.407,94.738,91.449,0,0,0,0,0
36913,-814,1044,8695,-175.400,-192.386,7878.700,1366.524,1216.368,1201.239,130.000,113.286,-335.713,-103.027,79.006,-539.700,0,0,0,0,0
37013,-165,1302,8429,-129.943,-190.229,7884.471,1312.106,1218.880,1202.897,454.571,21.571,57.710,-544.181,25.117,16.583,0,0,0,0,0
37113,-193,353,4682,-117.257,-196.143,7858.500,1307.133,1215.220,1251.167,126.857,-59.143,-259.712,-49.729,-36.602,482.692,0,0,0,0,0
37213,-1398,1118,5804,-185.700,-147.929,7818.814,1245.519,1199.346,1271.481,-684.429,482.143,-396.855,-616.140,-158.733,203.145,0,0,0,0,0
37313,442,1303,7885,-131.757,-127.800,7816.329,1188.461,1211.642,1271.179,539.429,201.286,-24.858,-570.579,122.954,-3.020,0,0,0,0,0
37413,-112,-697,9382,-120.971,-129.429,7830.186,1185.161,1212.329,1282.831,107.857,-16.286,138.569,-33.004,6.871,116.515,0,0,0,0,0
37513,943,-65,7599,-121.871,-127.386,7835.600,1184.329,1212.315,1281.042,-9.000,20.429,54.146,-8.324,-0.135,-17.882,0,0,0,0,0
37613,-1817,572,7405,-188.057,-81.943,7840.143,1147.171,1177.563,1278.942,-661.857,454.429,45.430,-371.573,-347.527,-21.007,0,0,0,0,0
37713,805,676,7001,-177.400,-61.957,7822.743,1152.868,1178.385,1281.951,106.572,199.857,-174.004,56.967,8.219,30.093,0,0,0,0,0
37813,-2084,1341,10559,-192.643,-23.171,7856.186,1170.783,1179.242,1321.744,-152.429,387.857,334.429,179.147,8.577,397.928,0,0,0,0,0
37913,4658,-2644,11881,-115.157,-32.400,7896.386,1302.366,1197.054,1398.521,774.857,-92.286,402.002,1315.831,178.119,767.777,0,0,1,0,0
38013,3493,-1932,10400,-41.757,-35.629,7919.800,1357.688,1201.859,1426.247,734.000,-32.286,234.141,553.225,48.046,277.251,0,0,0,0,0
38113,-271,-2501,9213,-59.571,-58.157,7963.286,1352.388,1232.685,1418.587,-178.143,-225.286,434.858,-53.003,308.260,-76.597,0,0,0,0,0
38213,3620,-1244,6256,-22.043,-52.486,7949.643,1416.028,1226.286,1430.300,375.286,56.714,-136.426,636.401,-63.987,117.133,0,0,0,0,0
38313,2507,-1057,9698,15.114,-56.171,7976.986,1447.430,1228.909,1445.091,371.571,-36.857,273.428,314.016,26.230,147.906,0,0,0,0,0
38413,-2040,666,10465,3.771,-43.857,7993.571,1460.322,1231.762,1466.727,-113.429,123.143,165.854,128.922,28.525,216.357,0,0,0,0,0
38513,-2013,2244,5182,-22.971,-5.471,7977.143,1479.740,1260.263,1491.477,-267.429,383.857,-164.282,194.181,285.015,247.506,0,0,0,0,0
38613,923,1072,6367,3.386,31.043,7960.614,1479.923,1253.908,1502.775,263.571,365.143,-165.288,1.832,-63.551,112.982,0,0,0,0,0
38713,8,200,8182,-5.529,51.343,7973.143,1477.988,1244.945,1500.912,-89.143,203.000,125.288,-19.352,-89.634,-18.633,0,0,0,0,0
38813,-3884,2002,2792,-39.957,90.186,7895.186,1538.620,1262.657,1621.438,-344.286,388.429,-779.575,606.318,177.122,1205.261,0,0,0,0,1
38913,1825,263,8678,-7.343,116.457,7876.957,1553.537,1246.747,1605.282,326.143,262.714,-182.285,149.172,-159.094,-161.561,0,0,0,0,0
39013,1510,-1718,6356,-6.271,126.486,7839.357,1554.557,1229.002,1609.636,10.714,100.286,-376.001,10.198,-177.458,43.544,0,0,0,0,0
39113,-3621,-28,4886,-27.686,139.829,7804.857,1593.393,1222.163,1646.270,-214.143,133.428,-345.000,388.365,-68.386,366.333,0,0,0,0,0
39213,2646,190,10178,5.957,145.614,7840.429,1624.328,1221.428,1670.089,336.429,57.857,355.718,309.347,-7.351,238.193,0,0,0,0,0
39313,487,208,7282,6.071,151.257,7837.186,1624.362,1220.790,1670.950,1.143,56.429,-32.432,0.337,-6.375,8.605,0,0,0,0,0
39413,2044,-321,7779,73.429,159.100,7813.486,1609.647,1215.958,1659.804,673.571,78.429,-236.997,-147.146,-48.324,-111.451,0,0,0,0,0
39513,23,138,8397,47.300,173.271,7821.229,1595.345,1209.834,1661.244,-261.286,141.714,77.427,-143.018,-61.244,14.391,0,0,0,0,0
39613,-437,-30,7772,41.814,185.171,7818.400,1596.341,1203.663,1661.156,-54.857,119.000,-28.286,9.952,-61.704,-0.870,0,0,0,0,0
39713,15,-479,7240,52.543,178.314,7827.929,1593.598,1206.058,1655.890,107.286,-68.571,95.288,-27.423,23.945,-52.664,0,0,0,0,0
39813,123,-61,7137,37.100,209.943,7816.843,1587.592,1169.791,1657.880,-154.429,316.286,-110.859,-60.065,-362.667,19.897,0,0,0,0,0
39913,149,-242,8363,39.643,231.143,7810.600,1587.626,1147.754,1654.986,25.429,212.000,-62.427,0.345,-220.374,-28.938,0,0,0,0,0
40013,-428,-267,8965,35.314,240.900,7811.957,1588.482,1140.552,1655.893,-43.286,97.571,13.569,8.560,-72.020,9.069,0,0,0,0,0
40113,328,-545,8124,53.243,239.343,7827.686,1584.598,1141.549,1653.552,179.286,-15.571,157.285,-38.849,9.971,-23.412,0,0,0,0,0
40213,-909,-2108,8971,62.757,202.586,7894.400,1576.773,1174.636,1603.364,95.143,-367.571,667.144,-78.248,330.874,-501.874,0,0,0,0,0
40313,642,-1455,7728,58.614,187.529,7912.829,1574.863,1188.945,1593.905,-41.429,-150.571,184.287,-19.094,143.087,-94.597,0,0,0,0,0
40413,-727,-1026,7929,56.914,196.371,7918.757,1575.646,1177.530,1593.182,-17.000,88.429,59.287,7.826,-114.153,-7.229,0,0,0,0,0
40513,-393,-1060,7794,71.900,195.414,7903.014,1566.279,1178.523,1588.886,149.857,-9.571,-157.432,-93.668,9.930,-42.957,0,0,0,0,0
40613,557,-949,7881,91.043,186.457,7909.200,1563.901,1184.787,1587.946,191.429,-89.572,61.860,-23.784,62.645,-9.406,0,0,0,0,0
40713,-1243,-400,7720,63.686,198.329,7906.543,1570.235,1174.645,1588.104,-273.571,118.714,-26.572,63.347,-101.422,1.586,0,0,0,0,0
40813,338,-666,8315,59.314,201.057,7906.343,1569.039,1172.410,1588.052,-43.714,27.286,-2.002,-11.962,-22.350,-0.522,0,0,0,0,0
40913,36,-472,7994,60.400,193.829,7910.814,1568.996,1174.975,1587.852,10.857,-72.286,44.717,-0.428,25.647,-2.001,0,0,0,0,0
41013,-751,-259,7519,46.543,186.500,7910.500,1571.815,1176.176,1587.927,-138.571,-73.286,-3.145,28.191,12.014,0.751,0,0,0,0,0
41113,-88,-1017,7890,47.014,173.429,7892.486,1571.770,1184.365,1580.889,4.714,-130.714,-180.142,-0.453,81.892,-70.381,0,0,0,0,0
41213,199,-1193,7941,47.100,132.986,7891.386,1571.778,1181.997,1580.828,0.857,-404.429,-11.001,0.081,-23.684,-0.608,0,0,0,0,0
41313,-78,-1655,8028,35.543,77.571,7907.429,1569.680,1173.564,1576.429,-115.571,-554.143,160.430,-20.983,-84.325,-43.994,0,0,0,0,0
41413,-817,-1553,8199,-7.543,25.214,7909.400,1550.986,1163.343,1576.706,-430.857,-523.571,19.712,-186.943,-102.212,2.773,0,0,0,0,0
41513,482,-2012,8119,13.700,-7.214,7927.714,1547.358,1187.784,1571.580,212.429,-324.286,183.145,-36.278,244.410,-51.257,0,0,0,0,0
41613,-376,-1450,7915,23.400,-49.614,7923.500,1542.750,1185.554,1571.213,97.000,-424.000,-42.144,-46.082,-22.303,-3.669,0,0,0,0,0
41713,-358,-1008,7592,16.314,-88.914,7924.057,1543.346,1170.986,1571.089,-70.857,-393.000,5.571,5.959,-145.679,-1.248,0,0,0,0,0
41813,-122,-766,7875,43.814,-121.686,7932.800,1523.356,1157.296,1569.087,275.000,-327.714,87.427,-199.893,-136.896,-20.015,0,0,0,0,0
41913,-332,-860,8787,23.986,-149.686,7937.586,1519.080,1151.094,1571.173,-198.286,-280.000,47.861,-42.764,-62.028,20.858,0,0,0,0,0
42013,2,-672,7804,23.057,-177.871,7943.628,1519.073,1139.322,1569.833,-9.286,-281.857,60.425,-0.071,-117.712,-13.395,0,0,0,0,0
42113,-740,-659,8263,27.586,-191.186,7943.457,1516.316,1139.421,1569.798,45.286,-133.143,-1.714,-27.567,0.989,-0.356,0,0,0,0,0
42213,-305,-504,7743,5.543,-205.714,7940.757,1509.761,1136.831,1569.978,-220.429,-145.286,-26.997,-65.547,-25.907,1.799,0,0,0,0,0
42313,-287,-504,7982,23.386,-228.057,7936.886,1498.778,1127.062,1569.537,178.429,-223.429,-38.716,-109.833,-97.681,-4.407,0,0,0,0,0
42413,-262,-695,7626,5.614,-248.486,7938.557,1494.676,1122.371,1569.143,-177.714,-204.286,16.714,-41.024,-46.912,-3.943,0,0,0,0,0
42513,-353,-447,7929,20.071,-242.814,7951.443,1486.219,1120.349,1565.303,144.571,56.714,128.857,-84.568,-20.225,-38.396,0,0,0,0,0
42613,-510,-602,8229,17.214,-266.629,8009.757,1487.043,1109.966,1497.032,-28.571,-238.143,583.145,8.239,-103.832,-682.710,0,0,0,0,0
42713,-84,-124,7715,46.529,-301.986,7982.486,1464.360,1064.509,1484.715,293.143,-353.571,-272.715,-226.829,-454.569,-123.174,0,0,0,0,0
42813,-349,-235,7872,57.257,-325.371,7989.286,1458.660,1044.613,1483.102,107.286,-233.857,67.998,-56.996,-198.956,-16.128,0,0,0,0,0
42913,-191,101,7912,22.529,-327.643,7984.957,1435.028,1043.510,1482.879,-347.286,-22.714,-43.286,-236.328,-11.029,-2.228,0,0,0,0,0
43013,-169,-102,8104,27.971,-345.286,7981.986,1433.567,1029.005,1482.429,54.429,-176.429,-29.712,-14.603,-145.054,-4.502,0,0,0,0,0
43113,-465,89,7952,28.000,-353.771,7988.400,1433.558,1022.921,1481.314,0.286,-84.857,64.141,-0.096,-60.834,-11.151,0,0,0,0,0
43213,-193,-170,7599,7.014,-370.614,8008.686,1425.866,1009.968,1466.041,-209.857,-168.429,202.856,-76.914,-129.530,-152.733,0,0,0,0,0
43313,-583,-19,8066,9.143,-382.771,8005.771,1424.872,1000.497,1465.721,21.286,-121.571,-29.141,-9.940,-94.717,-3.199,0,0,0,0,0
43413,-140,-536,7896,-22.814,-371.600,7963.000,1402.599,994.339,1424.023,-319.571,111.714,-427.715,-222.732,-61.582,-416.978,0,0,0,0,0
43513,-621,-558,8173,-28.029,-349.514,7910.943,1404.134,972.545,1346.689,-52.143,220.857,-520.571,15.347,-217.939,-773.342,0,0,0,0,0
43613,-255,-636,7572,-23.914,-349.857,7911.029,1403.040,972.641,1346.667,41.143,-3.429,0.859,-10.933,0.967,-0.217,0,0,0,0,0
43713,-355,-316,8169,-63.243,-349.671,7935.128,1372.860,972.647,1335.930,-393.286,1.857,240.996,-301.801,0.052,-107.371,0,0,0,0,0
43813,-432,-117,8005,-42.286,-367.914,7912.029,1355.768,955.993,1320.452,209.571,-182.429,-230.996,-170.927,-166.532,-154.777,0,0,0,0,0
43913,-535,56,8109,-38.300,-382.029,7903.657,1353.902,942.238,1317.315,39.857,-141.143,-83.716,-18.656,-137.553,-31.367,0,0,0,0,0
44013,-273,-4,7759,-39.843,-400.686,7894.086,1354.107,921.408,1315.897,-15.429,-186.571,-95.713,2.051,-208.302,-14.185,0,0,0,0,0
44113,-388,294,8668,-42.629,-401.529,7951.029,1354.620,920.745,1260.756,-27.857,-8.429,569.429,5.126,-6.630,-551.407,0,0,0,0,0
44213,-311,303,7783,-27.100,-413.171,7979.300,1345.191,906.499,1234.203,155.286,-116.429,282.710,-94.286,-142.455,-265.531,0,0,0,0,0
44313,-237,222,8167,-36.800,-428.614,7983.329,1344.221,886.110,1234.349,-97.000,-154.429,40.288,-9.700,-203.892,1.458,0,0,0,0,0
44413,72,337,7589,-34.171,-413.843,7957.714,1344.252,890.122,1223.616,26.286,147.714,-256.143,0.304,40.123,-107.333,0,0,0,0,0
44513,-510,313,8297,-54.929,-408.443,7967.686,1340.215,893.363,1223.496,-207.571,54.000,99.712,-40.369,32.407,-1.196,0,0,0,0,0
44613,-120,292,7779,-30.686,-412.443,7973.029,1323.364,889.583,1221.843,242.429,-40.000,53.433,-168.507,-37.802,-16.534,0,0,0,0,0
44713,-511,66,8311,-49.486,-421.157,7991.743,1320.704,881.832,1216.833,-188.000,-87.143,187.139,-26.604,-77.510,-50.093,0,0,0,0,0
44813,-59,-167,7974,-20.557,-442.700,7954.814,1297.802,856.578,1176.932,289.286,-215.429,-369.282,-229.016,-252.537,-399.011,0,0,0,0,0
44913,-469,-461,8152,-93.800,-411.514,7901.543,1170.085,814.576,1078.274,-732.429,311.857,-532.715,-1277.168,-420.024,-986.586,0,0,0,0,0
45013,-344,-99,7900,-148.614,-385.329,7865.829,1087.751,794.492,1035.482,-548.143,261.857,-357.144,-823.345,-200.843,-427.916,0,0,0,0,0
45113,-345,-414,7891,-149.671,-355.514,7846.943,1087.905,752.593,1022.716,-10.571,298.143,-188.857,1.545,-418.989,-127.657,0,0,0,0,0
45213,-330,-410,8148,-206.100,-343.600,7873.971,988.844,744.996,1005.164,-564.286,119.143,270.283,-990.613,-75.968,-175.526,0,0,0,0,0
45313,-555,-532,7838,-249.843,-336.100,7847.400,934.067,740.405,980.886,-437.428,75.000,-265.713,-547.767,-45.910,-242.778,0,0,0,0,0
45413,-653,-485,8271,-230.029,-352.543,7816.057,910.291,730.684,930.502,198.143,-164.428,-313.428,-237.759,-97.204,-503.835,0,0,0,0,0
45513,-598,-908,7713,-209.814,-397.571,7852.214,885.856,663.299,874.963,202.143,-450.286,361.572,-244.349,-673.857,-555.388,0,0,0,0,0
45613,-374,-286,8454,-228.343,-416.971,7882.029,875.472,639.464,859.263,-185.286,-194.000,298.145,-103.844,-238.345,-157.002,0,0,0,0,0
45713,-189,495,7802,-231.157,-412.757,7876.600,875.024,644.469,858.551,-28.143,42.143,-54.287,-4.479,50.046,-7.125,0,0,0,0,0
45813,-342,437,7930,-180.557,-435.114,7950.000,756.746,584.684,602.023,506.000,-223.571,733.999,-1182.783,-597.851,-2565.278,0,0,0,0,0
45913,-293,299,7794,-210.814,-434.600,7937.372,717.265,585.313,595.860,-302.571,5.143,-126.284,-394.810,6.293,-61.629,0,0,0,0,0
46013,-294,530,7954,-236.586,-402.486,7960.200,686.732,575.606,564.630,-257.714,321.143,228.286,-305.330,-97.073,-312.299,0,0,0,0,0
46113,-186,197,7856,-187.514,-399.271,8002.628,552.808,578.310,426.793,490.714,32.143,424.282,-1339.236,27.040,-1378.375,0,0,0,0,0
46213,-521,-137,8293,-232.757,-403.943,7975.700,436.396,574.841,339.158,-452.429,-46.714,-269.282,-1164.121,-34.685,-876.351,0,0,0,0,0
46313,-204,109,7949,-242.629,-405.357,7985.229,427.733,573.454,328.744,-98.714,-14.143,95.283,-86.635,-13.871,-104.135,0,0,0,0,0
46413,-400,185,8193,-277.543,-398.129,7991.143,327.711,577.646,328.705,-349.143,72.286,59.146,-1000.214,41.915,-0.394,0,0,0,0,0
46513,-289,358,8079,-282.000,-394.986,7986.600,325.709,581.142,325.243,-44.572,31.429,-45.430,-20.023,34.964,-34.612,0,0,0,0,0
46613,-380,256,7772,-281.186,-390.900,7986.600,325.392,584.688,325.243,8.143,40.857,0.000,-3.174,35.461,-0.000,0,0,0,0,0
46713,-476,282,8067,-288.200,-380.029,7998.414,324.221,590.000,312.687,-70.143,108.714,118.140,-11.704,53.116,-125.566,0,0,0,0,0
46813,-383,-10,7848,-295.429,-379.300,8008.571,320.593,590.425,295.622,-72.285,7.286,101.572,-36.279,4.248,-170.645,0,0,0,0,0
46913,-241,298,8028,-301.000,-371.586,8003.786,316.180,595.673,292.542,-55.714,77.143,-47.856,-44.135,52.479,-30.809,0,0,0,0,0
47013,-275,147,7752,-298.814,-365.671,7986.457,315.823,598.729,270.161,21.857,59.143,-173.286,-3.569,30.565,-223.807,0,0,0,0,0
47113,-508,275,8084,-310.757,-353.957,7985.886,307.594,603.112,269.911,-119.428,117.143,-5.713,-82.293,43.824,-2.493,0,0,0,0,0
47213,-185,207,7778,-300.414,-320.886,7968.843,299.366,568.500,243.548,103.429,330.714,-170.430,-82.276,-346.110,-263.637,0,0,0,0,0
47313,-445,324,8421,-315.943,-295.471,7978.743,277.470,556.878,247.608,-155.286,254.143,98.999,-218.958,-116.221,40.598,0,0,0,0,0
47413,-228,154,7807,-308.814,-278.614,7977.000,273.195,552.351,248.380,71.286,168.571,-17.427,-42.751,-45.275,7.722,0,0,0,0,0
47513,-562,162,8144,-311.229,-261.157,7982.000,274.671,546.661,248.168,-24.143,174.572,50.000,14.761,-56.902,-2.115,0,0,0,0,0
47613,-258,169,7856,-322.871,-245.186,7981.643,254.127,542.648,248.331,-116.429,159.714,-3.569,-205.446,-40.123,1.630,0,0,0,0,0
47713,-278,139,8152,-309.086,-237.486,7987.814,228.745,544.219,247.117,137.857,77.000,61.714,-253.817,15.704,-12.139,0,0,0,0,0
47813,-155,338,7954,-316.129,-223.143,7982.657,215.945,545.964,243.983,-70.428,143.429,-51.572,-128.003,17.449,-31.349,0,0,0,0,0
47913,-469,78,8040,-323.343,-215.286,7983.314,212.468,546.283,244.074,-72.143,78.571,6.572,-34.769,3.196,0.916,0,0,0,0,0
48013,-350,242,8031,-317.614,-208.129,7990.628,206.173,548.939,237.637,57.286,71.572,73.140,-62.951,26.559,-64.372,0,0,0,0,0
48113,-477,149,7970,-323.171,-191.471,7991.771,205.149,541.786,237.343,-55.571,166.571,11.431,-10.239,-71.533,-2.945,0,0,0,0,0
48213,-305,317,8114,-330.371,-169.900,7994.243,195.304,531.442,237.701,-72.000,215.714,24.712,-98.446,-103.438,3.589,0,0,0,0,0
48313,-269,89,7788,-333.100,-144.986,7990.814,193.081,501.258,238.918,-27.286,249.143,-34.282,-22.234,-301.837,12.161,0,0,0,0,0
48413,-369,224,8076,-326.700,-119.600,7989.057,184.153,473.539,237.830,64.000,253.857,-17.573,-89.272,-277.195,-10.878,0,0,0,0,0
48513,-311,113,7864,-338.029,-89.243,7985.414,156.349,415.849,237.764,-113.286,303.571,-36.431,-278.049,-576.896,-0.654,0,0,0,0,0
48613,-299,330,8240,-336.929,-63.814,7990.057,156.348,385.153,239.511,11.000,254.286,46.431,-0.002,-306.965,17.465,0,0,0,0,0
48713,-341,224,7725,-336.686,-46.214,7991.957,156.329,369.433,236.858,2.429,176.000,18.999,-0.197,-157.197,-26.524,0,0,0,0,0
48813,-605,216,8196,-343.586,-32.186,7996.543,157.357,360.368,237.656,-69.000,140.286,45.859,10.278,-90.654,7.973,0,0,0,0,0
48913,-187,123,7767,-341.514,-18.143,7981.971,158.446,346.731,219.305,20.714,140.429,-145.718,10.895,-136.372,-183.509,0,0,0,0,0
49013,-425,159,8220,-347.614,-6.271,7987.914,153.238,338.263,220.037,-61.000,118.714,59.429,-52.084,-84.675,7.320,0,0,0,0,0
49113,-17,240,7817,-337.286,6.571,7981.543,150.788,330.207,218.430,103.286,128.429,-63.711,-24.494,-80.557,-16.064,0,0,0,0,0
49213,-430,150,8054,-339.071,15.914,7985.986,151.135,324.838,216.689,-17.857,93.429,44.429,3.468,-53.698,-17.412,0,0,0,0,0
49313,-344,308,8006,-339.886,27.514,7986.329,151.006,320.534,216.702,-8.143,116.000,3.428,-1.292,-43.035,0.124,0,0,0,0,0
49413,-439,119,8055,-342.414,39.143,7992.457,151.162,308.657,212.449,-25.286,116.286,61.284,1.565,-118.775,-42.526,0,0,0,0,0
49513,-353,301,8082,-342.414,49.829,7994.643,151.162,304.562,212.572,0.000,106.857,21.860,0.000,-40.945,1.229,0,0,0,0,0
49613,-378,57,7726,-340.529,59.243,7987.457,149.878,294.280,213.030,18.857,94.143,-71.860,-12.845,-102.825,4.575,0,0,0,0,0
49713,-336,215,8090,-344.129,64.086,7992.814,146.665,294.014,210.814,-36.000,48.429,53.574,-32.129,-2.662,-22.153,0,0,0,0,0
49813,-241,163,7729,-342.586,69.771,7990.771,147.173,292.016,212.660,15.428,56.857,-20.430,5.078,-19.972,18.456,0,0,0,0,0
49913,-373,323,8338,-345.186,72.943,7996.857,146.075,293.540,216.381,-26.000,31.714,60.854,-10.974,15.235,37.216,0,0,0,0,0
50013,-140,196,7748,-344.771,77.200,7991.771,146.615,293.132,217.981,4.143,42.571,-50.854,5.392,-4.075,15.997,0,0,0,0,0
50113,-658,181,8199,-347.529,78.514,7995.300,150.610,293.388,219.304,-27.571,13.143,35.283,39.953,2.562,13.228,0,0,0,0,0
50213,-244,169,7841,-348.257,83.357,7998.757,149.983,292.041,214.892,-7.286,48.429,34.575,-6.272,-13.474,-44.115,0,0,0,0,0
50313,-332,108,8300,-344.671,85.171,8002.100,147.304,291.794,217.714,35.857,18.143,33.428,-26.785,-2.472,28.215,0,0,0,0,0
50413,-85,214,7756,-343.886,95.886,8000.100,148.535,282.407,219.317,7.857,107.143,-20.000,12.312,-93.867,16.027,0,0,0,0,0
50513,-420,133,8112,-341.014,105.757,7999.229,145.052,271.234,218.748,28.714,98.714,-8.716,-34.828,-111.731,-5.683,0,0,0,0,0
50613,-248,276,7905,-340.914,118.786,8003.986,145.114,256.812,212.950,1.000,130.286,47.573,0.616,-144.225,-57.986,0,0,0,0,0
50713,-478,155,8128,-342.671,125.514,8003.400,146.016,251.446,212.551,-17.571,67.286,-5.859,9.018,-53.656,-3.987,0,0,0,0,0
50813,-228,304,8007,-339.757,131.529,8003.429,146.240,250.607,212.551,29.143,60.143,0.288,2.236,-8.391,0.004,0,0,0,0,0
50913,-506,72,7789,-339.343,131.757,7998.857,145.726,250.545,213.670,4.143,2.286,-45.718,-5.135,-0.617,11.185,0,0,0,0,0
51013,-380,244,8042,-340.871,135.300,8002.900,145.583,250.354,211.762,-15.286,35.429,40.430,-1.428,-1.913,-19.078,0,0,0,0,0
51113,-227,105,7816,-338.571,132.600,7990.729,146.091,249.646,197.167,23.000,-27.000,-121.714,5.081,-7.079,-145.955,0,0,0,0,0
51213,-392,370,8232,-339.729,133.557,7997.143,146.189,250.425,197.607,-11.571,9.571,64.146,0.978,7.787,4.408,0,0,0,0,0
51313,-270,189,7745,-340.200,133.086,7991.114,145.910,250.289,198.767,-4.714,-4.714,-60.288,-2.791,-1.359,11.598,0,0,0,0,0
51413,-591,203,8220,-349.671,131.171,8000.128,140.255,249.232,194.591,-94.714,-19.143,90.142,-56.555,-10.567,-41.763,0,0,0,0,0
51513,-284,185,7752,-346.443,129.343,7992.343,139.123,248.359,193.457,32.285,-18.286,-77.856,-11.312,-8.727,-11.342,0,0,0,0,0
51613,-346,142,8222,-349.671,127.200,7998.671,136.427,247.593,193.620,-32.285,-21.429,63.286,-26.962,-7.668,1.632,0,0,0,0,0
51713,-23,254,7837,-342.700,129.886,7991.900,140.415,247.934,190.847,69.714,26.857,-67.715,39.881,3.410,-27.727,0,0,0,0,0
51813,-430,120,7996,-348.000,133.986,7992.214,136.556,245.350,190.836,-53.000,41.000,3.145,-38.596,-25.839,-0.116,0,0,0,0,0
51913,-277,323,8002,-345.257,145.186,7990.071,136.025,235.636,189.869,27.429,112.000,-21.431,-5.307,-97.140,-9.665,0,0,0,0,0
52013,-511,143,8207,-347.643,148.643,7994.457,137.439,233.796,191.278,-23.857,34.571,43.857,14.142,-18.398,14.093,0,0,0,0,0
52113,-303,330,7982,-347.043,159.271,7995.757,137.541,224.711,190.880,6.000,106.286,13.003,1.019,-90.849,-3.987,0,0,0,0,0
52213,-488,50,7873,-349.300,165.843,7991.829,138.536,214.459,190.535,-22.571,65.714,-39.287,9.946,-102.516,-3.442,0,0,0,0,0
52313,-348,263,8000,-346.343,177.200,7994.143,136.305,197.590,189.635,29.571,113.571,23.145,-22.310,-168.694,-9.008,0,0,0,0,0
52413,-312,78,7894,-341.471,185.243,7988.757,131.258,181.255,187.031,48.714,80.429,-53.857,-50.467,-163.353,-26.037,0,0,0,0,0
52513,-197,323,8157,-335.743,202.829,7995.100,128.662,125.463,185.090,57.286,175.857,63.428,-25.959,-557.912,-19.407,0,0,0,0,0
52613,-377,171,7701,-335.786,209.357,7984.343,128.675,110.902,179.916,-0.428,65.286,-107.573,0.132,-145.612,-51.739,0,0,0,0,0
52713,-598,258,8200,-341.629,205.971,7990.029,131.140,105.622,180.352,-58.429,-33.857,56.860,24.644,-52.800,4.361,0,0,0,0,0
52813,-259,138,7707,-340.443,201.700,7986.843,131.506,102.183,183.329,11.857,-42.714,-31.860,3.660,-34.394,29.771,0,0,0,0,0
52913,-463,204,8257,-342.871,200.343,7993.457,132.175,101.510,184.600,-24.286,-13.571,66.143,6.694,-6.726,12.710,0,0,0,0,0
53013,-24,199,7799,-339.014,195.614,7991.243,137.382,93.432,185.985,38.571,-47.286,-22.144,52.069,-80.784,13.844,0,0,0,0,0
53113,-472,126,8101,-343.100,194.600,7994.743,137.023,93.796,185.712,-40.857,-10.143,35.000,-3.590,3.641,-2.729,0,0,0,0,0
53213,-284,318,7956,-339.714,201.100,7989.929,135.505,86.036,182.254,33.857,65.000,-48.140,-15.180,-77.603,-34.583,0,0,0,0,0
53313,-412,138,8146,-342.686,201.514,7992.743,134.775,85.660,183.119,-29.714,4.143,28.140,-7.300,-3.755,8.652,0,0,0,0,0
53413,-311,337,7996,-341.414,203.686,7989.929,134.648,87.128,181.526,12.714,21.714,-28.140,-1.269,14.678,-15.924,0,0,0,0,0
53513,-497,47,7804,-344.386,199.243,7986.000,135.749,87.075,182.529,-29.714,-44.429,-39.287,11.011,-0.528,10.028,0,0,0,0,0
53613,-315,227,8061,-343.457,198.829,7990.128,135.725,86.873,180.903,9.286,-4.143,41.284,-0.245,-2.023,-16.259,0,0,0,0,0
53713,-259,134,7813,-340.357,196.714,7986.500,135.139,86.624,181.870,31.000,-21.143,-36.284,-5.858,-2.493,9.665,0,0,0,0,0
53813,-331,343,8266,-339.614,201.757,7992.471,135.045,84.696,184.073,7.429,50.429,59.712,-0.936,-19.272,22.034,0,0,0,0,0
53913,-235,198,7682,-339.529,200.329,7987.529,135.110,83.901,187.663,0.857,-14.286,-49.424,0.645,-7.958,35.901,0,0,0,0,0
54013,-666,220,8163,-345.114,201.371,7993.400,140.309,83.685,186.629,-55.857,10.429,58.711,51.991,-2.159,-10.342,0,0,0,0,0
54113,-219,134,7732,-340.986,199.357,7988.372,139.706,83.585,188.849,41.286,-20.143,-50.283,-6.030,-0.996,22.201,0,0,0,0,0
54213,-436,222,8237,-344.571,199.571,7994.929,138.875,83.624,189.399,-35.857,2.143,65.571,-8.310,0.385,5.495,0,0,0,0,0
54313,-145,180,7730,-340.286,197.514,7985.057,140.331,82.298,184.888,42.857,-20.571,-98.716,14.561,-13.255,-45.103,0,0,0,0,0
54413,-457,153,8195,-343.557,197.500,7990.600,140.344,82.306,185.283,-32.714,-0.143,55.430,0.135,0.076,3.945,0,0,0,0,0
54513,-157,260,7860,-337.771,198.900,7986.543,139.566,82.523,184.989,57.857,14.000,-40.571,-7.786,2.174,-2.943,0,0,0,0,0
54613,-459,194,8197,-340.643,199.257,7991.414,139.962,82.447,185.974,-28.714,3.571,48.711,3.964,-0.761,9.855,0,0,0,0,0
54713,-260,324,8002,-340.386,201.900,7989.271,140.093,83.432,184.973,2.571,26.429,-21.426,1.313,9.853,-10.012,0,0,0,0,0
54813,-508,49,7857,-345.429,197.771,7987.886,139.682,83.745,185.594,-50.428,-41.286,-13.857,-4.112,3.129,6.213,0,0,0,0,0
54913,-389,270,8043,-344.286,200.514,7987.929,138.992,82.918,185.607,11.429,27.429,0.430,-6.901,-8.276,0.124,0,0,0,0,0
55013,-268,79,7888,-343.114,198.186,7985.886,139.284,84.002,185.908,11.714,-23.286,-20.430,2.921,10.839,3.014,0,0,0,0,0
55113,-239,350,8194,-339.714,201.057,7989.086,138.879,85.690,187.528,34.000,28.714,32.002,-4.054,16.880,16.198,0,0,0,0,0
55213,-303,180,7720,-339.686,199.100,7983.457,138.886,84.576,189.595,0.286,-19.571,-56.289,0.073,-11.132,20.677,0,0,0,0,0
55313,-587,259,8200,-344.229,201.529,7989.343,141.673,83.817,189.831,-45.429,24.286,58.857,27.865,-7.590,2.358,0,0,0,0,0
55413,-330,162,7761,-343.671,200.643,7984.843,141.651,83.903,191.450,5.572,-8.857,-45.000,-0.218,0.854,16.191,0,0,0,0,0
55513,-406,171,8299,-345.029,201.471,7991.057,141.786,83.318,194.463,-13.571,8.286,62.144,1.355,-5.853,30.128,0,0,0,0,0
55613,-48,112,7699,-341.443,198.357,7983.329,146.016,82.526,195.165,35.857,-31.143,-77.285,42.295,-7.919,7.019,0,0,0,0,0
55713,-517,206,8202,-343.957,198.100,7990.143,147.494,82.473,194.352,-25.143,-2.571,68.145,14.785,-0.523,-8.130,0,0,0,0,0
55813,-92,244,7840,-336.629,198.500,7985.057,147.086,82.627,193.555,73.286,4.000,-50.859,-4.084,1.536,-7.971,0,0,0,0,0
55913,-414,212,8255,-339.871,199.771,7992.029,146.251,82.139,194.362,-32.429,12.714,69.717,-8.347,-4.882,8.072,0,0,0,0,0
56013,-323,347,7944,-338.414,202.457,7988.086,145.904,83.818,192.488,14.572,26.857,-39.429,-3.477,16.794,-18.742,0,0,0,0,0
56113,-528,43,7983,-345.714,199.643,7990.457,142.380,85.794,191.385,-73.000,-28.143,23.711,-35.231,19.762,-11.030,0,0,0,0,0
56213,-298,263,7965,-343.829,201.257,7989.186,142.126,85.908,191.254,18.857,16.143,-12.715,-2.549,1.138,-1.308,0,0,0,0,0
56313,-389,82,7997,-344.471,198.029,7989.057,142.227,86.082,191.246,-6.429,-32.286,-1.284,1.011,1.743,-0.083,0,0,0,0,0
56413,-167,349,8117,-340.586,201.314,7989.943,143.303,87.383,191.692,38.857,32.857,8.857,10.759,13.005,4.464,0,0,0,0,0
56513,-396,146,7750,-341.200,199.100,7985.200,143.447,86.791,193.455,-6.143,-22.143,-47.427,1.440,-5.922,17.627,0,0,0,0,0
56613,-570,291,8182,-343.943,202.443,7991.714,145.938,85.753,192.291,-27.429,33.428,65.142,24.914,-10.373,-11.638,0,0,0,0,0
56713,-291,129,7698,-343.300,201.214,7986.114,146.071,86.180,195.036,6.429,-12.286,-56.001,1.326,4.263,27.445,0,0,0,0,0
56813,-482,230,8208,-346.743,202.171,7992.957,146.458,86.122,194.296,-34.429,9.572,68.428,3.879,-0.577,-7.394,0,0,0,0,0
56913,-234,87,7690,-344.757,198.800,7983.700,147.030,85.945,193.069,19.857,-33.714,-92.568,5.717,-1.769,-12.270,0,0,0,0,0
57013,-371,190,8187,-348.057,198.714,7989.971,144.975,85.951,192.440,-33.000,-0.857,62.710,-20.547,0.058,-6.291,0,0,0,0,0
57113,-121,220,7764,-340.386,199.271,7983.757,142.559,85.960,192.613,76.714,5.571,-62.139,-24.161,0.098,1.732,0,0,0,0,0
57213,-392,255,8334,-342.500,200.500,7990.800,142.211,86.133,196.244,-21.143,12.286,70.425,-3.481,1.730,36.304,0,0,0,0,0
57313,-222,291,7905,-340.929,203.114,7985.157,142.925,86.063,192.923,15.714,26.143,-56.426,7.133,-0.701,-33.211,0,0,0,0,0
57413,-630,102,8058,-348.714,201.514,7989.471,143.614,86.883,191.118,-77.857,-16.000,43.140,6.890,8.199,-18.045,0,0,0,0,0
57513,-208,227,7963,-345.686,202.857,7987.343,144.312,86.540,190.571,30.286,13.429,-21.284,6.984,-3.436,-5.476,0,0,0,0,0
57613,-308,75,8045,-346.543,199.986,7989.343,143.907,87.396,190.431,-8.571,-28.714,20.000,-4.051,8.559,-1.401,0,0,0,0,0
57713,-163,360,8074,-342.043,202.914,7988.571,144.649,89.254,189.976,45.000,29.286,-7.715,7.421,18.584,-4.544,0,0,0,0,0
57813,-374,113,7776,-344.129,200.186,7985.271,144.041,89.041,191.626,-20.857,-27.286,-32.998,-6.081,-2.127,16.503,0,0,0,0,0
57913,-508,332,8110,-344.157,203.900,7989.857,144.073,89.040,190.713,-0.286,37.143,45.854,0.323,-0.018,-9.131,0,0,0,0,0
58013,-367,114,7917,-343.971,202.043,7988.071,144.035,89.538,190.802,1.857,-18.571,-17.856,-0.379,4.986,0.886,0,0,0,0,0
58113,-307,313,8107,-345.114,205.014,7992.229,143.419,89.719,190.177,-11.429,29.714,41.572,-6.166,1.814,-6.253,0,0,0,0,0
58213,-385,82,7716,-345.014,200.900,7984.857,143.388,88.657,190.740,1.000,-41.143,-73.716,-0.303,-10.630,5.629,0,0,0,0,0
58313,-411,220,8173,-347.029,201.343,7990.971,143.311,88.673,189.811,-20.143,4.429,61.143,-0.776,0.169,-9.291,0,0,0,0,0
58413,-100,162,7751,-340.014,200.757,7984.271,143.214,88.796,189.885,70.143,-5.857,-66.997,-0.969,1.225,0.749,0,0,0,0,0
58513,-437,308,8364,-342.200,202.514,7993.014,143.510,89.679,193.052,-21.857,17.571,87.427,2.957,8.834,31.670,0,0,0,0,0
58613,-143,249,7832,-339.300,204.043,7987.443,145.442,89.547,191.988,29.000,15.286,-55.713,19.320,-1.327,-10.641,0,0,0,0,0
58713,-616,120,8144,-347.771,202.129,7991.829,144.035,89.890,192.008,-84.714,-19.143,43.857,-14.068,3.432,0.198,0,0,0,0,0
58813,-294,232,7859,-345.829,203.729,7989.872,143.830,89.409,192.653,19.428,16.000,-19.570,-2.052,-4.806,6.446,0,0,0,0,0
58913,-261,41,8106,-345.600,199.700,7991.357,143.951,90.293,193.141,2.286,-40.286,14.854,1.219,8.839,4.882,0,0,0,0,0
59013,-130,349,7956,-340.157,202.643,7987.771,144.795,91.743,191.426,54.429,29.429,-35.854,8.437,14.495,-17.144,0,0,0,0,0
59113,-458,103,7854,-342.371,199.400,7985.943,145.394,91.194,192.083,-22.143,-32.429,-18.286,5.988,-5.488,6.566,0,0,0,0,0
59213,-281,324,7984,-339.414,203.314,7987.529,144.504,90.575,191.602,29.572,39.143,15.859,-8.896,-6.183,-4.814,0,0,0,0,0
59313,-460,141,8051,-341.014,201.571,7988.257,145.209,90.584,191.745,-16.000,-17.429,7.285,7.045,0.085,1.429,0,0,0,0,0
59413,-353,344,8077,-341.600,205.371,7990.872,145.173,90.899,191.689,-5.857,38.000,26.143,-0.355,3.153,-0.554,0,0,0,0,0
59513,-383,43,7759,-344.257,201.371,7985.186,144.201,91.791,192.578,-26.571,-40.000,-56.860,-9.720,8.921,8.886,0,0,0,0,0
59613,-385,246,8135,-344.371,202.443,7991.386,144.230,91.868,190.302,-1.143,10.714,62.002,0.291,0.769,-22.763,0,0,0,0,0
59713,-161,139,7759,-338.129,200.743,7985.086,142.565,91.925,190.590,62.429,-17.000,-62.998,-16.652,0.572,2.890,0,0,0,0,0
59813,-327,341,8298,-339.100,203.643,7993.529,142.254,93.095,191.174,-9.714,29.000,84.429,-3.111,11.695,5.835,0,0,0,0,0
59913,-188,243,7729,-335.171,204.200,7985.986,142.575,93.212,191.046,39.286,5.571,-75.430,3.210,1.171,-1.280,0,0,0,0,0
60013,-594,181,8196,-343.314,203.943,7991.657,140.837,93.251,191.304,-81.429,-2.571,56.714,-17.378,0.388,2.575,0,0,0,0,0
60113,-252,196,7845,-340.171,204.943,7988.000,140.384,92.784,191.625,31.429,10.000,-36.572,-4.528,-4.670,3.214,0,0,0,0,0
60213,-410,118,8186,-341.971,202.086,7991.286,140.460,92.337,193.015,-18.000,-28.571,32.856,0.760,-4.472,13.900,0,0,0,0,0
60313,-66,287,7936,-337.029,204.214,7988.286,143.953,92.552,192.217,49.429,21.286,-30.000,34.932,2.153,-7.977,0,0,0,0,0
60413,-364,112,8103,-337.786,201.000,7989.814,143.954,91.788,192.697,-7.571,-32.143,15.288,0.005,-7.635,4.801,0,0,0,0,0
60513,-259,321,7914,-334.386,204.914,7991.386,142.961,90.976,191.621,34.000,39.143,15.713,-9.934,-8.120,-10.762,0,0,0,0,0
60613,-438,136,8104,-336.143,203.614,7992.000,143.466,91.301,191.912,-17.571,-13.000,6.143,5.059,3.247,2.909,0,0,0,0,0
60713,-317,348,8007,-336.971,206.671,7994.771,143.186,92.494,190.704,-8.286,30.571,27.715,-2.807,11.929,-12.080,0,0,0,0,0
60813,-499,40,7779,-339.371,202.343,7987.814,144.468,93.101,189.562,-24.000,-43.286,-69.570,12.821,6.067,-11.419,0,0,0,0,0
60913,-334,209,8063,-340.786,202.500,7993.257,143.923,93.103,186.142,-14.143,1.572,54.429,-5.451,0.018,-34.200,0,0,0,0,0
61013,-242,103,7829,-334.729,200.829,7988.486,138.944,93.821,186.011,60.571,-16.714,-47.715,-49.783,7.183,-1.315,0,0,0,0,0
61113,-326,348,8274,-336.257,203.886,7996.229,138.250,95.072,186.453,-15.286,30.571,77.427,-6.947,12.508,4.425,0,0,0,0,0
61213,-166,188,7710,-332.400,203.400,7988.700,139.176,95.065,187.217,38.571,-4.857,-75.283,9.268,-0.069,7.641,0,0,0,0,0
61313,-680,234,8197,-340.043,204.171,7995.372,143.304,95.091,186.198,-76.429,7.714,66.714,41.276,0.261,-10.196,0,0,0,0,0
61413,-237,167,7829,-336.900,204.371,7990.143,143.117,94.998,185.657,31.429,2.000,-52.285,-1.872,-0.931,-5.411,0,0,0,0,0
61513,-347,121,8244,-339.614,202.386,7995.628,141.471,95.266,187.395,-27.143,-19.857,54.854,-16.454,2.688,17.385,0,0,0,0,0
61613,-123,273,7848,-334.814,203.514,7990.643,143.031,95.628,186.612,48.000,11.286,-49.854,15.594,3.612,-7.829,0,0,0,0,0
61713,-364,87,8189,-336.300,200.129,7993.314,142.786,95.497,188.088,-14.857,-33.857,26.714,-2.449,-1.303,14.761,0,0,0,0,0
61813,-146,275,7845,-331.129,203.357,7993.143,143.029,94.144,188.218,51.714,32.286,-1.714,2.430,-13.532,1.296,0,0,0,0,0
61913,-464,176,8188,-332.200,202.014,7995.214,143.738,93.854,189.548,-10.714,-13.429,20.713,7.087,-2.902,13.305,0,0,0,0,0
62013,-260,339,7991,-332.086,205.729,7996.686,143.792,94.057,189.110,1.143,37.143,14.712,0.542,2.027,-4.387,0,0,0,0,0
62113,-531,32,7880,-336.257,201.186,7992.200,145.259,94.656,188.098,-41.714,-45.429,-44.854,14.670,5.998,-10.121,0,0,0,0,0
62213,-393,429,7998,-337.543,204.743,7996.171,145.357,98.398,185.221,-12.857,35.571,39.712,0.982,37.417,-28.763,0,0,0,0,0
62313,-130,111,7982,-331.014,202.629,7993.057,144.265,98.799,183.593,65.286,-21.143,-31.143,-10.920,4.007,-16.278,0,0,0,0,0
62413,-375,528,8190,-331.657,207.857,7999.186,144.359,105.937,182.904,-6.429,52.286,61.284,0.943,71.383,-6.896,0,0,0,0,0
62513,-388,365,7653,-331.400,210.629,7989.957,144.243,107.463,183.838,2.571,27.714,-92.285,-1.167,15.262,9.346,0,0,0,0,0
62613,-555,440,8219,-338.643,215.314,7997.386,142.550,110.177,182.432,-72.429,46.857,74.287,-16.931,27.140,-14.064,0,0,0,0,0
62713,-175,389,7617,-333.757,217.929,7989.029,142.213,112.080,186.227,48.857,26.143,-83.569,-3.363,19.027,37.951,0,0,0,0,0
62813,-392,208,8363,-338.043,217.414,7996.500,139.355,112.042,190.540,-42.857,-5.143,74.712,-28.585,-0.382,43.126,0,0,0,0,0
62913,29,388,7642,-331.714,219.929,7987.743,145.677,113.852,192.534,63.286,25.143,-87.573,63.224,18.104,19.944,0,0,0,0,0
63013,-638,133,8337,-336.214,216.871,7993.357,150.136,113.271,196.858,-45.000,-30.571,56.143,44.583,-5.815,43.240,0,0,0,0,0
63113,-67,311,7747,-329.629,220.700,7989.986,151.681,111.849,199.016,65.857,38.286,-33.711,15.458,-14.213,21.576,0,0,0,0,0
63213,-635,87,8462,-334.443,218.186,7997.086,155.891,112.844,206.714,-48.143,-25.143,71.001,42.094,9.946,76.984,0,0,0,0,0
63313,-231,313,7859,-332.186,221.486,7995.114,156.228,112.189,207.363,22.572,33.000,-19.717,3.372,-6.551,6.485,0,0,0,0,0
63413,-590,-170,8077,-338.229,214.071,7994.543,157.894,120.368,207.081,-60.429,-74.143,-5.713,16.657,81.794,-2.817,0,0,0,0,0
63513,-274,145,7852,-336.486,214.057,7996.000,157.920,120.376,205.709,17.429,-0.143,14.570,0.260,0.081,-13.716,0,0,0,0,0
63613,-537,-192,8130,-336.014,207.157,7995.257,157.270,129.282,205.129,4.714,-69.000,-7.427,-6.499,89.053,-5.799,0,0,0,0,0
63713,-106,111,8131,-333.371,206.900,8001.443,159.542,129.455,202.585,26.429,-2.572,61.855,22.723,1.730,-25.443,0,0,0,0,0
63813,-399,-136,7763,-332.186,201.671,7995.086,158.739,135.659,202.985,11.857,-52.286,-63.569,-8.026,62.040,4.001,0,0,0,0,0
63913,-485,56,8231,-335.771,201.229,8002.814,159.315,136.082,201.516,-35.857,-4.429,77.285,5.754,4.236,-14.693,0,0,0,0,0
64013,-260,223,8007,-334.186,201.700,8000.243,159.509,136.100,200.294,15.857,4.714,-25.718,1.938,0.175,-12.219,0,0,0,0,0
64113,-447,479,8272,-338.843,205.400,8007.500,157.968,140.011,200.805,-46.572,37.000,72.573,-15.407,39.116,5.112,0,0,0,0,0
64213,-400,332,7511,-338.957,206.500,7995.743,158.009,140.697,205.386,-1.143,11.000,-117.573,0.413,6.861,45.803,0,0,0,0,0
64313,-315,368,8160,-340.286,207.600,7999.386,157.410,141.652,206.004,-13.286,11.000,36.431,-5.991,9.541,6.187,0,0,0,0,0
64413,-15,478,7730,-331.500,212.971,7994.700,158.156,144.643,208.335,87.857,53.714,-46.855,7.457,29.912,23.306,0,0,0,0,0
64513,-361,431,8384,-333.686,215.886,8000.714,157.490,146.933,213.349,-21.857,29.143,60.142,-6.660,22.903,50.145,0,0,0,0,0
64613,-101,495,7727,-330.729,221.886,7996.171,159.870,149.608,215.730,29.571,60.000,-45.430,23.799,26.754,23.810,0,0,0,0,0
64713,-633,207,8241,-337.443,219.700,7998.557,162.532,148.689,217.494,-67.143,-21.857,23.857,26.621,-9.189,17.637,0,0,0,0,0
64813,-112,488,7939,-333.700,225.057,8000.886,164.650,151.478,215.966,37.429,53.571,23.286,21.180,27.885,-15.281,0,0,0,0,0
64913,-554,501,8408,-334.357,227.471,8005.143,165.434,154.480,220.954,-6.571,24.143,42.573,7.843,30.023,49.884,0,0,0,0,0
65013,211,527,8062,-326.100,233.371,8007.214,177.578,157.883,220.798,82.571,59.000,20.713,121.435,34.029,-1.564,0,0,0,0,0
65113,-509,216,7993,-328.986,231.986,8005.586,178.880,157.604,220.476,-28.857,-13.857,-16.284,13.027,-2.796,-3.218,0,0,0,0,0
65213,-244,890,8043,-326.971,243.529,8010.257,179.032,174.842,217.738,20.143,115.428,46.714,1.517,172.385,-27.380,0,0,0,0,0
65313,-459,217,7838,-327.657,243.486,8005.471,179.444,174.848,217.790,-6.857,-0.428,-47.861,4.120,0.061,0.520,0,0,0,0,0
65413,-173,685,7949,-328.700,250.957,8008.300,178.327,182.225,215.743,-10.429,74.714,28.286,-11.174,73.769,-20.472,0,0,0,0,0
65513,-223,577,7770,-325.643,254.800,7999.814,178.278,186.181,213.253,30.572,38.429,-84.854,-0.485,39.559,-24.901,0,0,0,0,0
65613,-502,205,8193,-330.771,254.171,8004.971,178.114,186.274,213.497,-51.286,-6.286,51.567,-1.642,0.928,2.443,0,0,0,0,0
65713,-229,883,7653,-325.243,265.071,7997.957,175.156,199.927,216.854,55.286,109.000,-70.142,-29.576,136.534,33.564,0,0,0,0,0
65813,-335,158,8316,-325.829,264.014,8004.486,175.119,200.295,219.436,-5.857,-10.572,65.288,-0.369,3.674,25.821,0,0,0,0,0
65913,-16,831,7917,-322.329,275.300,8001.786,178.790,209.458,219.333,35.000,112.857,-27.002,36.706,91.631,-1.030,0,0,0,0,0
66013,-431,255,7747,-326.629,273.957,7998.800,177.729,209.282,221.349,-43.000,-13.428,-29.858,-10.609,-1.756,20.162,0,0,0,0,0
66113,-323,516,7977,-324.700,279.857,8000.557,177.024,210.199,220.680,19.286,59.000,17.573,-7.049,9.168,-6.692,0,0,0,0,0
66213,-253,454,7890,-324.300,281.714,7999.214,177.154,211.153,221.062,4.000,18.571,-13.428,1.299,9.539,3.823,0,0,0,0,0
66313,-96,520,8372,-319.100,287.129,8003.800,178.432,212.331,225.376,52.000,54.143,45.854,12.781,11.782,43.140,0,0,0,0,0
66413,338,422,7611,-309.229,288.243,7997.143,194.660,212.831,229.951,98.714,11.143,-66.567,162.277,4.996,45.754,0,0,0,0,0
66513,-283,590,7886,-307.800,296.057,7998.957,194.480,213.723,228.562,14.286,78.143,18.140,-1.798,8.922,-13.893,0,0,0,0,0
66613,-439,502,7739,-308.571,299.714,7993.300,194.891,215.021,230.021,-7.715,36.572,-56.572,4.113,12.985,14.588,0,0,0,0,0
66713,194,830,7636,-303.500,309.586,7991.543,203.111,223.125,232.263,50.714,98.714,-17.568,82.196,81.041,22.420,0,0,0,0,0
66813,-332,984,7658,-303.571,318.771,7982.400,203.120,237.032,232.616,-0.714,91.857,-91.431,0.091,139.065,3.529,0,0,0,0,0
66913,-230,1124,7293,-304.171,331.357,7976.171,202.840,255.356,244.834,-6.000,125.857,-62.285,-2.804,183.237,122.180,0,0,0,0,0
67013,-19,1085,8367,-295.957,344.271,7978.614,202.579,269.872,247.850,82.143,129.143,24.429,-2.608,145.160,30.157,0,0,0,0,0
67113,-229,1019,8526,-295.629,356.029,7988.343,202.669,280.859,255.656,3.286,117.571,97.285,0.896,109.879,78.068,0,0,0,0,0
67213,-161,630,6914,-292.071,363.343,7970.171,202.815,281.232,284.536,35.571,73.143,-181.714,1.465,3.726,288.794,0,0,0,0,0
67313,575,369,9157,-282.914,364.514,7987.614,225.965,281.082,317.430,91.572,11.714,174.429,231.499,-1.497,328.945,0,0,0,0,0
67413,-72,384,6938,-278.743,368.400,7970.971,227.122,279.440,340.637,41.714,38.857,-166.431,11.569,-16.424,232.062,0,0,0,0,0
67513,-48,552,8020,-275.729,371.700,7972.486,228.758,280.224,340.616,30.143,33.000,15.146,16.363,7.837,-0.210,0,0,0,0,0
67613,553,5,8196,-261.571,369.829,7973.800,248.123,282.222,341.297,141.571,-18.714,13.140,193.648,19.981,6.817,0,0,0,0,0
67713,-397,-339,8356,-262.714,360.014,7978.786,248.560,294.489,344.282,-11.429,-98.143,49.858,4.365,122.671,29.846,0,0,0,0,0
67813,145,-248,8528,-253.514,355.900,7989.486,251.544,300.874,349.506,92.000,-41.143,107.002,29.844,63.848,52.240,0,0,0,0,0
67913,-111,330,8001,-250.329,357.629,7988.600,251.916,300.372,349.397,31.857,17.286,-8.857,3.723,-5.018,-1.089,0,0,0,0,0
68013,371,583,7688,-241.571,364.486,7986.586,262.486,299.959,350.715,87.571,68.571,-20.142,105.701,-4.125,13.183,0,0,0,0,0
68113,-293,461,7946,-241.100,366.100,7981.900,262.364,300.170,349.031,4.714,16.143,-46.860,-1.225,2.109,-16.842,0,0,0,0,0
68213,219,620,8260,-235.600,372.271,7989.757,267.859,300.885,349.012,55.000,61.714,78.574,54.946,7.150,-0.186,0,0,0,0,0
68313,7,900,7844,-225.786,381.786,7984.714,263.953,306.833,348.531,98.143,95.143,-50.430,-39.052,59.483,-4.810,0,0,0,0,0
68413,-326,394,8613,-227.057,385.029,7995.914,264.218,305.744,355.867,-12.714,32.429,111.997,2.652,-10.896,73.358,0,0,0,0,0
68513,-471,305,8243,-228.829,387.657,7995.900,265.430,304.250,355.857,-17.714,26.286,-0.142,12.111,-14.939,-0.099,0,0,0,0,0
68613,30,56,7133,-226.643,384.557,7985.686,266.918,306.500,369.939,21.857,-31.000,-102.144,14.883,22.496,140.814,0,0,0,0,0
68713,330,-4,9000,-216.729,383.257,7997.271,274.415,307.948,388.365,99.143,-13.000,115.859,74.975,14.489,184.265,0,0,0,0,0
68813,-126,-78,8203,-216.443,378.214,8002.386,274.499,312.536,388.684,2.857,-50.428,51.143,0.839,45.876,3.182,0,0,0,0,0
68913,30,28,7644,-209.386,376.100,7994.614,274.394,314.392,390.330,70.571,-21.143,-77.715,-1.050,18.559,16.461,0,0,0,0,0
69013,-92,108,7040,-206.986,372.800,7981.029,274.675,315.972,406.437,24.000,-33.000,-135.854,2.814,15.804,161.071,0,0,0,0,0
69113,-580,571,7849,-207.686,380.500,7980.586,275.561,314.136,406.563,-7.000,77.000,-4.429,8.859,-18.368,1.267,0,0,0,0,0
69213,-367,352,7699,-207.314,379.400,7976.314,275.329,314.099,407.926,3.714,-11.000,-42.715,-2.326,-0.368,13.630,0,0,0,0,0
69313,-371,80,7889,-210.757,378.957,7974.986,275.847,314.499,408.057,-34.429,-4.428,-13.286,5.180,3.997,1.308,0,0,0,0,0
69413,-469,32,9445,-212.100,371.871,7992.914,276.870,316.641,443.170,-13.429,-70.857,179.282,10.232,21.424,351.125,0,0,0,0,0
69513,-310,210,7714,-210.986,369.657,7993.786,276.316,317.223,442.560,11.143,-22.143,8.716,-5.537,5.818,-6.097,0,0,0,0,0
69613,-11,193,8292,-203.214,366.129,7994.829,274.173,317.794,443.175,77.714,-35.286,10.430,-21.430,5.711,6.151,0,0,0,0,0
69713,-230,296,7667,-204.000,364.800,7995.543,274.170,317.890,442.605,-7.857,-13.286,7.144,-0.032,0.960,-5.697,0,0,0,0,0
69813,49,30,8642,-197.700,362.257,7999.529,274.844,319.840,447.130,63.000,-25.428,39.858,6.736,19.501,45.242,0,0,0,0,0
69913,-24,-242,8142,-198.457,353.257,8006.671,274.290,327.755,445.351,-7.571,-90.000,71.426,-5.532,79.149,-17.784,0,0,0,0,0
70013,-458,49,7452,-195.886,352.057,7994.029,270.982,328.711,448.346,25.714,-12.000,-126.426,-33.089,9.566,29.948,0,0,0,0,0
70113,-254,-168,8105,-198.557,345.214,7999.143,270.619,334.431,447.540,-26.714,-68.428,51.143,-3.622,57.195,-8.058,0,0,0,0,0
70213,1010,-537,9079,-175.057,336.300,8007.957,301.376,349.186,462.399,235.000,-89.143,88.140,307.563,147.548,148.584,0,0,0,0,0
70313,-1571,267,8881,-194.200,335.643,8022.557,343.881,349.272,473.467,-191.429,-6.571,146.001,425.053,0.865,110.684,0,0,0,0,0
70413,-264,-787,7221,-189.543,326.829,8010.329,340.682,369.142,482.864,46.571,-88.143,-122.285,-31.992,198.694,93.970,0,0,0,0,0
70513,-354,241,7206,-190.686,328.200,8001.100,341.097,368.641,491.891,-11.429,13.714,-92.285,4.153,-5.001,90.266,0,0,0,0,0
70613,-307,553,8628,-187.400,338.843,8008.214,338.846,364.197,497.275,32.857,106.429,71.143,-22.514,-44.446,53.847,0,0,0,0,0
70713,60,-488,9085,-185.029,330.286,8021.843,339.986,376.286,513.269,23.714,-85.572,136.284,11.404,120.892,159.940,0,0,0,0,0
70813,249,331,7665,-175.771,336.957,8020.443,342.844,372.076,514.106,92.571,66.714,-13.999,28.578,-42.099,8.371,0,0,0,0,0
70913,-552,379,8129,-176.729,341.571,8018.986,343.798,370.563,513.652,-9.572,46.143,-14.570,9.542,-15.131,-4.545,0,0,0,0,0
71013,-215,456,7217,-176.086,344.900,8007.700,343.684,370.530,522.396,6.429,33.286,-112.856,-1.143,-0.336,87.437,0,0,0,0,0
71113,-1042,-229,8843,-184.586,334.786,8015.857,357.364,376.348,530.849,-85.000,-101.143,81.567,136.807,58.188,84.530,0,0,0,0,0
71213,415,-5,7639,-172.943,329.971,8017.686,363.382,378.503,529.325,116.429,-48.143,18.286,60.178,21.542,-15.239,0,0,0,0,0
71313,-956,-43,7936,-182.100,324.100,8014.486,374.745,381.046,529.132,-91.572,-58.714,-31.997,113.633,25.438,-1.929,0,0,0,0,0
71413,543,181,8060,-174.129,319.857,8019.200,384.035,380.962,528.045,79.714,-42.429,47.144,92.893,-0.838,-10.867,0,0,0,0,0
71513,253,300,8640,-165.357,317.986,8022.857,386.669,380.734,531.435,87.714,-18.714,36.567,26.346,-2.288,33.895,0,0,0,0,0
71613,-174,127,8126,-166.400,312.729,8028.557,386.593,380.794,530.369,-10.428,-52.571,57.002,-0.765,0.601,-10.651,0,0,0,0,0
71713,-454,-339,7702,-163.843,304.929,8020.857,384.082,388.396,531.141,25.571,-78.000,-77.002,-25.110,76.020,7.719,0,0,0,0,0
71813,106,260,7766,-160.729,301.671,8018.386,385.371,387.802,531.918,31.143,-32.571,-24.712,12.894,-5.934,7.771,0,0,0,0,0
71913,-382,-290,8196,-158.271,290.371,8015.357,383.399,393.315,530.292,24.572,-113.000,-30.288,-19.721,55.124,-16.260,0,0,0,0,0
72013,269,-62,7337,-157.443,281.957,8005.000,384.258,394.461,536.326,8.286,-84.143,-103.569,8.589,11.463,60.334,0,0,0,0,0
72113,172,-279,8135,-147.714,274.886,8007.029,383.855,399.978,536.545,97.286,-70.714,20.288,-4.033,55.174,2.194,0,0,0,0,0
72213,-235,291,7665,-147.586,266.329,8001.628,383.824,393.075,538.056,1.286,-85.571,-54.004,-0.307,-69.034,15.108,0,0,0,0,0
72313,-533,-73,8218,-148.643,262.186,8007.057,384.781,395.096,538.295,-10.571,-41.429,54.287,9.569,20.211,2.386,0,0,0,0,0
72413,218,-122,7956,-143.057,250.657,8007.157,387.217,394.364,538.285,55.857,-115.285,1.001,24.361,-7.324,-0.101,0,0,0,0,0
72513,-724,-31,8196,-150.214,241.971,8013.243,393.212,393.776,537.977,-71.571,-86.857,60.854,59.953,-5.882,-3.077,0,0,0,0,0
72613,-535,-27,7685,-150.686,238.657,8005.986,393.653,395.047,538.929,-4.714,-33.143,-72.568,4.409,12.715,9.518,0,0,0,0,0
72713,-186,-224,8334,-150.071,222.843,8015.714,393.564,391.074,538.615,6.143,-158.143,97.285,-0.891,-39.731,-3.134,0,0,0,0,0
72813,-791,283,8107,-156.586,224.629,8012.729,400.287,391.059,537.521,-65.143,17.857,-29.858,67.234,-0.148,-10.946,0,0,0,0,0
72913,-184,-452,7732,-158.986,206.300,8010.086,399.941,392.274,538.439,-24.000,-183.286,-26.426,-3.466,12.150,9.182,0,0,0,0,0
73013,-238,385,7996,-156.229,208.157,8013.643,398.720,392.808,537.511,27.571,18.571,35.571,-12.213,5.335,-9.281,0,0,0,0,0
73113,-574,156,8392,-159.814,203.014,8019.571,401.323,391.097,539.359,-35.857,-51.429,59.282,26.038,-17.112,18.486,0,0,0,0,0
73213,-217,93,7522,-159.300,197.857,8014.314,401.227,390.132,542.382,5.143,-51.571,-52.568,-0.967,-9.646,30.223,0,0,0,0,0
73313,-398,-312,8119,-163.614,185.971,8010.700,402.145,392.801,540.827,-43.143,-118.857,-36.143,9.188,26.692,-15.549,0,0,0,0,0
73413,195,140,7764,-165.657,181.943,8012.886,399.949,391.805,539.515,-20.429,-40.286,21.855,-21.961,-9.965,-13.121,0,0,0,0,0
73513,-820,-110,8216,-173.329,171.943,8017.600,407.211,390.192,539.827,-76.714,-100.000,47.144,72.613,-16.128,3.123,0,0,0,0,0
73613,-223,-26,7701,-170.243,164.400,8017.057,406.002,388.840,540.126,30.857,-75.429,-5.430,-12.083,-13.521,2.990,0,0,0,0,0
73713,-193,-691,8321,-175.771,142.671,8026.843,403.633,393.508,539.338,-55.286,-217.286,97.856,-23.695,46.678,-7.878,0,0,0,0,0
73813,-521,-450,8018,-178.471,122.186,8031.986,405.298,386.438,537.510,-27.000,-204.857,51.431,16.647,-70.692,-18.283,0,0,0,0,0
73913,-82,-1203,7913,-176.357,88.943,8040.843,405.409,398.722,530.320,21.143,-332.429,88.569,1.117,122.838,-71.900,0,0,0,0,0
74013,-38,-1037,7992,-176.629,58.629,8035.486,405.310,402.490,528.890,-2.714,-303.143,-53.569,-0.992,37.674,-14.297,0,0,0,0,0
74113,-326,-1288,7953,-178.014,25.671,8027.300,405.652,416.703,525.659,-13.857,-329.571,-81.860,3.424,142.137,-32.307,0,0,0,0,0
74213,219,-1294,7727,-172.586,-1.814,8038.914,408.377,438.803,509.672,54.286,-274.857,116.143,27.248,220.995,-159.879,0,0,0,0,0
74313,-182,-934,8401,-183.400,-20.429,8028.114,398.337,450.168,493.622,-108.143,-186.143,-107.998,-100.404,113.649,-160.496,0,0,0,0,0
74413,-278,-161,7483,-186.343,-28.214,8035.900,398.264,447.812,480.490,-29.429,-77.857,77.856,-0.730,-23.551,-131.320,0,0,0,0,0
74513,-423,-703,8247,-191.700,-46.143,8039.143,398.889,449.344,481.137,-53.571,-179.286,32.432,6.248,15.315,6.473,0,0,0,0,0
74613,50,-318,7851,-198.886,-50.757,8034.214,389.837,450.452,481.272,-71.857,-46.143,-49.287,-90.521,11.082,1.350,0,0,0,0,0
74713,-539,-165,8146,-200.914,-48.271,8031.214,391.229,449.333,479.910,-20.286,24.857,-30.000,13.926,-11.188,-13.626,0,0,0,0,0
74813,-282,140,7650,-207.014,-42.729,8018.671,389.111,449.229,478.232,-61.000,55.429,-125.430,-21.179,-1.049,-16.771,0,0,0,0,0
74913,41,-427,8003,-204.843,-53.543,8018.700,390.064,449.237,478.231,21.714,-108.143,0.288,9.527,0.088,-0.011,0,0,0,0,0
75013,-107,-47,7697,-211.671,-62.543,8018.829,384.061,442.657,478.144,-68.286,-90.000,1.284,-60.028,-65.801,-0.876,0,0,0,0,0
75113,-302,-369,7910,-211.800,-74.400,8018.314,384.090,439.580,478.241,-1.286,-118.571,-5.142,0.287,-30.769,0.974,0,0,0,0,0
75213,-320,53,8088,-219.500,-82.500,8015.857,380.764,431.866,477.434,-77.000,-81.000,-24.575,-33.254,-77.140,-8.069,0,0,0,0,0
75313,-143,-700,8499,-221.643,-105.357,8025.214,379.905,421.478,480.384,-21.429,-228.571,93.574,-8.593,-103.887,29.496,0,0,0,0,0
75413,199,-334,7294,-214.143,-115.757,8006.372,382.941,417.995,482.821,75.000,-104.000,-188.428,30.358,-34.827,24.372,0,0,0,0,0
75513,-460,-387,8457,-213.986,-125.643,8009.429,382.838,416.106,484.982,1.571,-98.857,30.571,-1.032,-18.892,21.613,0,0,0,0,0
75613,198,-286,7653,-211.586,-130.529,8016.857,384.881,415.952,475.389,24.000,-48.857,74.282,20.432,-1.537,-95.937,0,0,0,0,0
75713,17,-776,8210,-216.057,-141.557,8005.571,380.354,422.632,461.077,-44.714,-110.286,-112.856,-45.264,66.798,-143.119,0,0,0,0,0
75813,181,-70,7415,-211.671,-141.443,7994.314,383.127,422.650,465.715,43.857,1.143,-112.568,27.730,0.182,46.384,0,0,0,0,0
75913,-354,-187,8192,-217.157,-144.514,8002.143,382.376,422.189,464.365,-54.857,-30.714,78.286,-7.512,-4.615,-13.505,0,0,0,0,0
76013,53,-311,7666,-215.086,-150.500,8011.086,383.440,421.536,451.602,20.714,-59.857,89.429,10.637,-6.529,-127.629,0,0,0,0,0
76113,-110,-274,8187,-208.371,-162.571,8015.914,381.099,412.708,451.650,67.143,-120.714,48.281,-23.409,-88.275,0.481,0,0,0,0,0
76213,-455,66,7988,-209.629,-166.657,8020.043,381.765,408.993,450.052,-12.571,-40.857,41.289,6.659,-37.154,-15.977,0,0,0,0,0
76313,-59,114,7906,-205.171,-166.171,8020.286,381.676,409.305,449.986,44.571,4.857,2.427,-0.888,3.127,-0.662,0,0,0,0,0
76413,-133,-310,8158,-200.371,-171.057,8001.900,380.439,408.952,416.441,48.000,-48.857,-183.857,-12.373,-3.536,-335.451,0,0,0,0,0
76513,-92,168,7601,-197.257,-171.657,8000.286,380.421,408.423,417.771,31.143,-6.000,-16.143,-0.179,-5.291,13.297,0,0,0,0,0
76613,-787,-139,8420,-208.343,-176.400,8002.114,386.096,406.081,419.321,-110.857,-47.428,18.286,56.751,-23.412,15.501,0,0,0,0,0
76713,301,-183,7580,-200.757,-183.243,8000.872,390.784,402.080,420.440,75.857,-68.429,-12.427,46.878,-40.019,11.189,0,0,0,0,0
76813,-585,-631,8155,-209.814,-192.686,7993.914,392.235,404.714,413.749,-90.571,-94.429,-69.575,14.508,26.343,-66.905,0,0,0,0,0
76913,355,-505,8487,-204.400,-196.443,7998.843,397.345,406.372,417.521,54.143,-37.571,49.287,51.101,16.577,37.722,0,0,0,0,0
77013,-63,-206,7810,-198.757,-200.086,8003.957,396.507,405.297,412.959,56.429,-36.429,51.143,-8.377,-10.751,-45.620,0,0,0,0,0
77113,-787,-136,7826,-206.371,-199.629,7999.971,402.566,405.351,413.311,-76.143,4.571,-39.858,60.592,0.540,3.518,0,0,0,0,0
77213,-364,-112,8061,-226.000,-193.557,7985.429,375.357,403.430,392.473,-196.286,60.714,-145.425,-272.095,-19.204,-208.383,0,0,0,0,0
77313,-18,-104,7942,-203.814,-198.857,7972.014,339.375,399.765,377.391,221.857,-53.000,-134.146,-359.818,-36.650,-150.817,0,0,0,0,0
77413,-158,124,7142,-202.300,-185.843,7970.886,339.339,395.209,379.746,15.143,130.143,-11.284,-0.354,-45.559,23.550,0,0,0,0,0
77513,-718,-555,8047,-207.500,-197.214,7982.900,344.375,394.214,368.494,-52.000,-113.714,120.142,50.361,-9.948,-112.523,0,0,0,0,0
77613,-622,-172,8579,-212.000,-207.571,7982.200,347.689,383.753,367.312,-45.000,-103.571,-6.997,33.132,-104.612,-11.815,0,0,0,0,0
77713,-14,99,7241,-213.057,-199.186,7955.857,346.972,383.947,353.127,-10.571,83.857,-263.433,-7.168,1.939,-141.851,0,0,0,0,0
77813,-713,-202,8221,-226.800,-206.800,7963.800,347.450,378.605,352.749,-137.429,-76.143,79.429,4.777,-53.419,-3.787,0,0,0,0,0
77913,-279,-52,7914,-222.900,-212.957,7960.729,345.303,372.484,352.232,39.000,-61.571,-30.713,-21.466,-61.217,-5.162,0,0,0,0,0
78013,-479,49,8002,-226.671,-218.771,7971.943,346.635,365.099,340.682,-37.714,-58.143,112.144,13.323,-73.841,-115.502,0,0,0,0,0
78113,-506,-190,7943,-219.014,-218.214,7959.086,334.239,365.113,324.148,76.572,5.571,-128.569,-123.967,0.137,-165.343,0,0,0,0,0
78213,-786,-107,7156,-236.171,-219.671,7952.186,332.071,364.462,335.818,-171.572,-14.572,-69.004,-21.677,-6.509,116.707,0,0,0,0,0
78313,-349,-774,8875,-227.500,-230.114,7965.600,320.898,369.686,353.208,86.714,-104.429,134.146,-111.730,52.234,173.895,0,0,0,0,0
78413,-26,-122,7961,-235.629,-234.443,7964.186,308.234,366.608,353.025,-81.286,-43.286,-14.146,-126.635,-30.779,-1.827,0,0,0,0,0
78513,-187,932,7360,-241.914,-225.414,7945.900,302.642,386.880,350.689,-62.857,90.286,-182.856,-55.928,202.725,-23.364,0,0,0,0,0
78613,237,958,7949,-236.043,-213.543,7943.372,307.844,409.595,350.019,58.714,118.714,-25.283,52.027,227.145,-6.702,0,0,0,0,0
78713,-70,1346,7927,-230.557,-189.471,7946.586,307.332,449.120,348.819,54.857,240.714,32.144,-5.119,395.254,-12.003,0,0,0,0,0
78813,-978,846,8318,-246.043,-181.100,7954.471,317.138,462.677,350.880,-154.857,83.714,78.853,98.052,135.568,20.618,0,0,0,0,0
78913,83,98,7617,-239.400,-175.557,7946.200,319.084,463.662,351.912,66.429,55.429,-82.710,19.467,9.853,10.318,0,0,0,0,0
79013,158,403,7659,-240.986,-168.914,7950.800,316.822,468.547,345.973,-15.857,66.429,45.996,-22.627,48.846,-59.388,0,0,0,0,0
79113,421,131,8976,-237.429,-163.057,7962.814,322.780,469.695,366.174,35.571,58.571,120.146,59.587,11.485,202.005,0,0,0,0,0
79213,240,680,7865,-230.643,-157.500,7965.671,327.715,477.274,364.616,67.857,55.571,28.569,49.349,75.791,-15.579,0,0,0,0,0
79313,-716,669,7585,-233.257,-146.900,7956.628,330.832,487.171,366.092,-26.143,106.000,-90.430,31.166,98.963,14.764,0,0,0,0,0
79413,311,-87,7676,-231.929,-146.400,7952.628,332.822,487.214,367.604,13.286,5.000,-40.000,19.903,0.432,15.116,0,0,0,0,0
79513,566,362,7590,-213.500,-140.786,7943.971,340.687,490.763,368.904,184.286,56.143,-86.572,78.646,35.488,13.000,0,0,0,0,0
79613,105,414,8303,-204.357,-134.486,7952.800,340.524,494.995,369.994,91.429,63.000,88.286,-1.629,42.326,10.900,0,0,0,0,0
79713,125,406,7768,-199.914,-125.486,7944.714,342.756,498.997,367.753,44.429,90.000,-80.854,22.321,40.018,-22.411,0,0,0,0,0
79813,92,-340,8111,-187.300,-134.386,7944.771,336.970,497.185,367.778,126.143,-89.000,0.571,-57.861,-18.125,0.255,0,0,0,0,0
79913,235,-16,7870,-181.314,-128.157,7946.743,340.676,495.896,367.001,59.857,62.286,19.712,37.065,-12.886,-7.768,0,0,0,0,0
80013,-223,194,8142,-181.100,-130.886,7948.829,340.645,493.585,367.690,2.143,-27.286,20.859,-0.310,-23.111,6.882,0,0,0,0,0
80113,950,90,8000,-159.329,-131.829,7943.229,362.818,493.099,363.863,217.714,-9.429,-56.001,221.727,-4.861,-38.270,0,0,0,0,0
80213,100,160,7919,-154.800,-130.871,7948.900,364.046,493.599,360.330,45.286,9.571,56.714,12.281,5.003,-35.330,0,0,0,0,0
80313,139,-6,7564,-147.129,-126.500,7940.971,364.498,493.330,362.599,76.714,43.714,-79.287,4.521,-2.688,22.689,0,0,0,0,0
80413,359,-187,7978,-144.786,-131.171,7944.029,367.207,492.332,361.995,23.428,-46.714,30.576,27.086,-9.983,-6.034,0,0,0,0,0
80513,374,218,7983,-127.729,-126.486,7940.700,363.155,494.069,360.547,170.572,46.857,-33.286,-40.517,17.369,-14.477,0,0,0,0,0
80613,236,323,7554,-121.171,-121.500,7938.600,365.512,496.811,362.361,65.571,49.857,-21.001,23.568,27.420,18.135,0,0,0,0,0
80713,706,-46,8196,-108.329,-112.286,7936.814,378.331,492.123,360.777,128.428,92.143,-17.856,128.196,-46.884,-15.843,0,0,0,0,0
80813,-970,93,8245,-114.743,-104.529,7940.057,388.931,491.017,362.508,-64.143,77.571,32.427,105.999,-11.061,17.312,0,0,0,0,0
80913,649,-229,8249,-104.300,-90.614,7944.857,399.345,473.167,364.338,104.429,139.143,47.998,104.133,-178.492,18.298,0,0,0,0,0
81013,-158,392,8222,-106.014,-70.200,7948.143,399.314,462.605,365.782,-17.143,204.143,32.861,-0.308,-105.628,14.446,0,0,0,0,0
81113,334,143,8033,-96.586,-49.757,7949.286,401.792,439.373,365.921,94.286,204.429,11.426,24.787,-232.320,1.384,0,0,0,0,0
81213,-249,434,8290,-103.271,-25.071,7957.329,400.377,416.732,367.132,-66.857,246.857,80.430,-14.157,-226.404,12.111,0,0,0,0,0
81313,-40,955,8391,-101.243,1.914,7957.186,400.332,418.159,366.961,20.286,269.857,-1.431,-0.443,14.272,-1.708,0,0,0,0,0
81413,866,829,8233,-84.900,16.057,7967.900,415.834,429.011,363.896,163.429,141.429,107.144,155.014,108.517,-30.652,0,0,0,0,0
81513,11,678,7696,-78.700,35.786,7960.029,413.978,427.241,363.733,62.000,197.286,-78.711,-18.560,-17.705,-1.631,0,0,0,0,0
81613,-207,545,7072,-82.371,48.114,7948.900,413.960,429.300,378.515,-36.714,123.286,-111.289,-0.180,20.597,147.821,0,0,0,0,0
81713,628,264,8957,-65.700,54.243,7960.486,418.706,429.276,396.361,166.714,61.286,115.859,47.466,-0.240,178.466,0,0,0,0,0
81813,290,243,8169,-57.529,55.714,7967.900,419.985,429.744,395.337,81.714,14.714,74.141,12.786,4.677,-10.244,0,0,0,0,0
81913,-978,128,8506,-72.086,63.643,7975.086,433.752,425.867,400.448,-145.571,79.286,71.860,137.668,-38.767,51.110,0,0,0,0,0
82013,1259,654,7392,-52.571,73.657,7970.729,461.577,431.354,405.083,195.143,100.143,-43.574,278.255,54.871,46.346,0,0,0,0,0
82113,185,1561,6928,-45.614,101.229,7956.700,461.436,462.720,423.527,69.571,275.714,-140.283,-1.418,313.658,184.443,0,0,0,0,0
82213,266,334,8165,-37.243,105.243,7957.800,461.697,463.503,423.966,83.714,40.143,10.996,2.617,7.823,4.394,0,0,0,0,0
82313,211,161,8264,-32.186,117.543,7954.443,462.449,453.282,420.584,50.571,123.000,-33.569,7.521,-102.204,-33.818,0,0,0,0,0
82413,-123,421,8011,-36.786,128.329,7964.686,461.728,451.388,413.038,-46.000,107.857,102.427,-7.216,-18.941,-75.459,0,0,0,0,0
82513,-101,654,7724,-31.657,143.200,7954.214,458.984,451.314,409.703,51.286,148.714,-104.712,-27.437,-0.745,-33.359,0,0,0,0,0
82613,789,472,7576,-23.214,154.029,7953.114,468.469,449.977,410.612,84.429,108.286,-11.001,94.844,-13.364,9.096,0,0,0,0,0
82713,-466,396,7364,-30.114,170.771,7941.029,471.373,436.668,415.297,-69.000,167.429,-120.854,29.049,-133.090,46.847,0,0,0,0,0
82813,651,-76,8454,-23.400,170.686,7955.872,477.638,436.716,414.798,67.143,-0.857,148.428,62.650,0.479,-4.989,0,0,0,0,0
82913,586,264,8091,-9.971,177.129,7954.429,481.354,434.714,414.149,134.286,64.429,-14.429,37.159,-20.023,-6.487,0,0,0,0,0
83013,-350,616,7434,-15.729,190.371,7951.114,482.974,433.761,417.360,-57.571,132.429,-33.145,16.197,-9.531,32.108,0,0,0,0,0
83113,-197,504,7871,-16.971,201.486,7946.600,483.327,431.682,416.492,-12.429,111.143,-45.142,3.528,-20.786,-8.677,0,0,0,0,0
83213,902,327,8233,2.414,205.214,7950.100,492.496,431.623,417.853,193.857,37.286,35.000,91.693,-0.591,13.604,0,0,0,0,0
83313,-1050,406,7672,-11.743,209.386,7946.757,508.056,432.132,419.126,-141.571,41.714,-33.428,155.596,5.090,12.735,0,0,0,0,0
83413,1434,290,7396,10.643,217.957,7935.872,535.975,427.672,423.372,223.857,85.714,-108.857,279.192,-44.597,42.461,0,0,0,0,0
83513,283,514,8223,16.000,222.900,7944.757,536.796,429.064,422.778,53.571,49.429,88.857,8.207,13.913,-5.946,0,0,0,0,0
83613,-664,404,7723,17.757,230.657,7934.800,534.360,427.356,419.664,17.571,77.572,-99.575,-24.355,-17.079,-31.138,0,0,0,0,0
83713,2039,152,8342,42.586,235.443,7945.686,584.928,424.563,420.202,248.286,47.857,108.857,505.684,-27.924,5.381,0,0,1,0,0
83813,-1628,1246,7761,27.686,262.257,7940.057,613.321,428.251,419.999,-149.000,268.143,-56.284,283.921,36.881,-2.027,0,0,0,0,0
83913,660,-234,7567,32.043,266.129,7926.914,616.704,422.484,417.063,43.571,38.714,-131.431,33.839,-57.674,-29.366,0,0,0,0,0
84013,-269,172,8194,29.100,271.529,7932.400,617.642,418.815,418.013,-29.429,54.000,54.858,9.373,-36.693,9.505,0,0,0,0,0
84113,244,-431,8260,43.829,267.314,7938.600,610.254,424.342,419.605,147.286,-42.143,62.002,-73.881,55.272,15.914,0,0,0,0,0
84213,202,-722,8016,51.914,258.600,7937.957,608.544,438.083,419.451,80.857,-87.143,-6.431,-17.099,137.412,-1.536,0,0,0,0,0
84313,1022,-18,7407,66.771,259.829,7930.314,619.257,437.184,424.156,148.571,12.286,-76.426,107.128,-8.990,47.045,0,0,0,0,0
84413,-536,827,9005,61.371,269.871,7956.929,622.831,441.996,432.228,-54.000,100.428,266.143,35.743,48.125,80.726,0,0,0,0,0
84513,230,-43,8115,74.914,277.186,7957.900,616.006,432.418,432.506,135.429,73.143,9.712,-68.246,-95.781,2.776,0,0,0,0,0
84613,-2569,82,7924,47.100,280.814,7948.543,686.741,429.691,426.004,-278.143,36.286,-93.569,707.344,-27.274,-65.020,0,0,0,0,0
84713,1394,63,7534,67.214,280.300,7952.729,705.033,429.930,420.434,201.143,-5.143,41.855,182.921,2.388,-55.695,0,0,0,0,0
84813,149,348,8054,79.529,288.157,7950.343,698.798,426.052,419.378,123.143,78.571,-23.857,-62.346,-38.777,-10.565,0,0,0,0,0
84913,721,-80,8560,93.814,287.757,7959.571,701.539,426.384,425.539,142.857,-4.000,92.285,27.407,3.321,61.612,0,0,0,0,0
85013,1113,535,8605,116.557,294.700,7968.186,708.372,426.397,432.359,227.429,69.429,86.143,68.334,0.125,68.203,0,0,0,0,0
85113,-893,399,6434,111.029,303.114,7946.628,714.692,422.543,469.133,-55.286,84.143,-215.571,63.193,-38.537,367.734,0,0,0,0,0
85213,475,-505,8085,129.043,297.429,7959.900,707.712,430.624,459.623,180.143,-56.857,132.715,-69.791,80.807,-95.101,0,0,0,0,0
85313,-648,-277,8399,124.771,304.529,7953.100,711.477,416.774,449.442,-42.714,71.000,-67.998,37.646,-138.494,-101.806,0,0,0,0,0
85413,-743,367,7985,114.529,311.514,7953.443,718.699,413.653,449.457,-102.429,69.857,3.428,72.214,-31.213,0.150,0,0,0,0,0
85513,1106,-283,7856,133.000,294.157,7960.529,727.276,412.743,443.921,184.714,-173.571,70.859,85.775,-9.100,-55.359,0,0,0,0,0
85613,803,-245,7943,141.086,276.971,7960.443,731.521,409.779,443.924,80.857,-171.857,-0.859,42.454,-29.643,0.027,0,0,0,0,0
85713,-1253,522,8510,124.186,265.200,7968.771,749.644,390.271,448.662,-169.000,-117.714,83.286,181.221,-195.075,47.381,0,0,0,0,0
85813,585,-374,8387,146.514,247.771,7969.757,739.693,391.185,449.503,223.286,-174.286,9.858,-99.505,9.138,8.412,0,0,0,0,0
85913,-566,1331,8070,137.243,265.386,7976.229,744.483,411.288,447.635,-92.714,176.143,64.712,47.899,201.028,-18.681,0,0,0,0,0
86013,1627,-1946,8132,158.229,231.829,7982.986,765.189,487.464,446.364,209.857,-335.571,67.573,207.057,761.765,-12.714,0,1,0,0,0
86113,-1489,-839,8657,130.943,217.971,7978.429,789.015,503.652,437.747,-272.857,-138.571,-45.571,238.265,161.876,-86.162,0,0,0,0,0
86213,-1582,-176,6737,104.914,205.743,7962.314,814.625,502.676,461.731,-260.286,-122.286,-161.143,256.101,-9.755,239.838,0,0,0,0,0
86313,663,-322,6413,124.614,191.586,7945.571,811.202,503.384,495.149,197.000,-141.572,-167.432,-34.234,7.082,334.179,0,0,0,0,0
86413,20,1082,5773,120.457,208.286,7918.386,810.982,513.161,557.517,-41.571,167.000,-271.855,-2.202,97.769,623.677,0,0,0,0,0
86513,3299,-382,7898,159.500,197.657,7922.786,893.119,517.554,556.121,390.429,-106.286,43.999,821.373,43.923,-13.954,0,0,0,0,0
86613,-57,757,9327,157.186,202.557,7937.414,893.467,521.190,578.931,-23.143,49.000,146.284,3.480,36.359,228.093,0,0,0,0,0
86713,-1805,135,8361,129.614,198.686,7945.886,923.315,520.670,580.726,-275.714,-38.714,84.717,298.481,-5.193,17.948,0,0,0,0,0
86813,-2756,407,4606,88.929,209.357,7895.814,984.779,517.164,702.638,-406.857,106.714,-500.713,614.636,-35.068,1219.125,0,0,0,0,1
86913,1787,23,7624,111.100,209.914,7892.300,1005.080,516.941,703.373,221.714,5.571,-35.146,203.007,-2.221,7.352,0,0,0,0,0
87013,-3304,1101,6174,67.086,222.871,7864.186,1083.174,527.636,731.596,-440.143,129.571,-281.143,780.945,106.951,282.224,0,0,0,0,0
87113,2185,-758,8329,84.729,210.757,7868.886,1107.203,540.135,733.507,176.429,-121.143,47.002,240.287,124.985,19.116,0,0,0,0,0
87213,242,-475,9775,86.757,201.686,7895.400,1107.359,546.209,767.592,20.286,-90.714,265.142,1.562,60.744,340.850,0,0,0,0,0
87313,751,-426,9277,95.500,195.686,7919.872,1110.149,550.746,783.772,87.429,-60.000,244.717,27.903,45.364,161.800,0,0,0,0,0
87413,-3497,12,7644,40.414,198.529,7915.100,1188.603,549.275,784.420,-550.857,28.428,-47.715,784.540,-14.711,6.481,0,0,0,0,0
87513,2372,526,5562,68.957,202.929,7880.514,1219.850,550.645,832.559,285.429,44.000,-345.859,312.469,13.704,481.385,0,0,0,0,0
87613,-1488,767,4744,44.329,209.271,7840.372,1233.556,554.535,911.350,-246.286,63.428,-401.426,137.053,38.900,787.910,0,0,0,0,0
87713,3371,-1009,8466,82.400,195.514,7844.229,1293.078,572.356,913.416,380.714,-137.571,38.569,595.229,178.210,20.661,0,0,0,0,0
87813,-3675,460,9443,43.757,200.757,7861.343,1362.506,573.073,931.803,-386.429,52.429,171.143,694.277,7.174,183.869,0,0,0,0,0
87913,2072,-569,7591,64.086,195.900,7851.943,1381.863,578.114,931.164,203.286,-48.571,-93.999,193.566,50.405,-6.394,0,0,0,0,0
88013,-648,1312,6855,57.086,209.043,7832.414,1384.209,592.697,937.511,-70.000,131.429,-195.288,23.463,145.825,63.472,0,0,0,0,0
88113,171,-324,7741,54.757,202.371,7828.243,1383.878,596.021,937.258,-23.286,-66.714,-41.714,-3.308,33.248,-2.522,0,0,0,0,0
88213,-598,818,7887,49.771,207.857,7822.486,1385.591,599.883,935.641,-49.857,54.857,-57.568,17.130,38.613,-16.177,0,0,0,0,0
88313,-442,663,7859,44.029,203.686,7814.886,1386.784,595.673,933.149,-57.429,-41.714,-76.001,11.929,-42.095,-24.915,0,0,0,0,0
88413,544,-83,7755,39.429,190.657,7808.057,1384.582,591.815,931.813,-46.000,-130.286,-68.286,-22.018,-38.583,-13.366,0,0,0,0,0
88513,482,609,8444,46.157,189.671,7818.743,1385.572,591.059,934.751,67.286,-9.857,106.855,9.894,-7.555,29.381,0,0,0,0,0
88613,-521,380,8862,41.671,187.314,7844.314,1386.892,589.966,938.449,-44.857,-23.571,255.718,13.199,-10.938,36.985,0,0,0,0,0
88713,889,-292,8188,45.400,179.371,7833.329,1388.813,592.617,929.821,37.286,-79.429,-109.858,19.209,26.509,-86.283,0,0,0,0,0
88813,-1164,607,5940,24.629,184.571,7801.486,1395.854,594.745,955.591,-207.714,52.000,-318.428,70.417,21.286,257.696,0,0,0,0,0
88913,1371,-874,8364,58.186,170.257,7799.457,1399.578,607.848,954.243,335.571,-143.143,-20.288,37.236,131.030,-13.480,0,0,0,0,0
89013,-3092,1328,7004,-3.971,179.886,7793.914,1440.876,620.638,957.714,-621.571,96.286,-55.430,412.976,127.902,34.713,0,0,0,0,0
89113,1722,367,7186,17.986,162.829,7797.600,1455.227,598.458,954.867,219.571,-170.571,36.860,143.518,-221.808,-28.473,0,0,0,0,0
89213,983,-988,8920,28.229,143.943,7808.386,1459.454,613.430,963.183,102.429,-188.857,107.856,42.269,149.724,83.168,0,0,0,0,0
89313,-1509,-39,8827,3.657,141.086,7816.429,1470.607,613.810,969.286,-245.714,-28.571,80.430,111.523,3.796,61.022,0,0,0,0,0
89413,322,-480,8204,10.014,128.214,7819.186,1471.007,617.242,970.109,63.571,-128.714,27.568,4.006,34.326,8.237,0,0,0,0,0
89513,646,-463,8200,20.686,112.257,7825.986,1472.872,617.881,971.086,106.714,-159.571,68.003,18.643,6.391,9.769,0,0,0,0,0
89613,-55,-194,9921,8.629,102.743,7859.486,1469.984,617.396,1001.846,-120.571,-95.143,335.000,-28.871,-4.852,307.593,0,0,0,0,0
89713,-1589,-486,9434,-7.414,90.143,7889.057,1481.162,620.276,1017.216,-160.429,-126.000,295.713,111.779,28.799,153.705,0,0,0,0,0
89813,4138,-979,6536,42.400,77.243,7861.657,1559.057,632.859,1027.411,498.143,-129.000,-273.999,778.950,125.835,101.945,0,0,0,0,0
89913,-2054,-686,9439,4.686,63.671,7880.914,1577.276,638.867,1044.027,-377.143,-135.714,192.568,182.188,60.072,166.166,0,0,0,0,0
90013,-1633,882,5598,-13.643,67.471,7854.686,1588.704,642.919,1077.453,-183.286,38.000,-262.285,114.281,40.522,334.257,0,0,0,0,0
90113,1675,-494,6569,13.100,53.214,7836.086,1601.100,644.145,1088.195,267.429,-142.571,-185.996,123.959,12.261,107.423,0,0,0,0,0
90213,415,-969,10879,6.143,34.700,7873.886,1598.278,654.551,1145.760,-69.571,-185.143,377.998,-28.219,104.058,575.647,0,0,0,0,0
90313,-318,1390,6791,16.600,48.757,7861.300,1593.722,672.689,1152.726,104.571,140.571,-125.859,-45.562,181.380,69.659,0,0,0,0,0
90413,2348,123,6534,29.657,46.371,7848.986,1608.953,672.125,1162.196,130.571,-23.857,-123.140,152.306,-5.640,94.702,0,0,0,0,0
90513,-27,-578,8946,25.229,30.771,7859.314,1608.676,673.761,1168.669,-44.286,-156.000,103.286,-2.770,16.360,64.729,0,0,0,0,0
90613,-2369,878,7403,0.871,37.543,7854.743,1631.670,679.832,1169.818,-243.571,67.714,-45.718,229.948,60.715,11.495,0,0,0,0,0
90713,-3685,1830,6885,-80.900,61.514,7833.929,1670.449,712.256,1173.918,-817.714,239.714,-208.140,387.788,324.238,41.000,0,0,0,0,0
90813,737,1296,6003,-47.114,62.229,7808.814,1662.715,713.468,1193.846,337.857,7.143,-251.143,-77.341,12.116,199.274,0,0,0,0,0
90913,-479,377,9002,-63.386,70.957,7829.314,1661.289,713.528,1201.811,-162.714,87.286,205.000,-14.265,0.600,79.656,0,0,0,0,0
91013,482,-311,6126,-52.657,64.057,7799.771,1662.350,714.851,1217.795,107.286,-69.000,-295.430,10.618,13.237,159.836,0,0,0,0,0
91113,495,-1134,7570,-49.071,54.014,7789.914,1663.257,726.578,1216.822,35.857,-100.429,-98.574,9.064,117.264,-9.729,0,0,0,0,0
91213,-2518,1122,6348,-87.929,80.357,7766.086,1688.518,731.377,1228.438,-388.571,263.429,-238.281,252.615,47.995,116.157,0,0,0,0,0
91313,1941,-163,9510,-74.800,78.286,7796.128,1700.626,731.858,1244.894,131.286,-20.714,300.425,121.083,4.808,164.562,0,0,0,0,0
91413,-1180,1126,7622,-84.000,82.557,7776.372,1704.833,737.069,1236.498,-92.000,42.714,-197.568,42.065,52.113,-83.959,0,0,0,0,0
91513,1650,-1443,7005,-63.714,62.557,7760.514,1716.854,758.877,1239.168,202.857,-200.000,-158.574,120.215,218.072,26.702,0,0,0,0,0
91613,-433,614,5818,-33.200,70.157,7730.429,1690.841,761.692,1260.221,305.143,76.000,-300.854,-260.137,28.152,210.525,0,0,0,0,0
91713,1250,-1080,6702,-35.257,53.829,7718.543,1689.190,773.825,1265.928,-20.571,-163.286,-118.857,-16.508,121.332,57.070,0,0,0,0,0
91813,-1472,733,6474,-58.414,59.329,7695.971,1697.596,777.257,1273.807,-231.571,55.000,-225.718,84.055,34.319,78.788,0,0,0,0,0
91913,-139,62,7168,-70.700,61.357,7676.086,1695.020,777.076,1271.025,-122.857,20.286,-198.853,-25.752,-1.810,-27.815,0,0,0,0,0
92013,1666,-181,7669,-62.800,51.129,7662.714,1701.794,775.485,1266.096,79.000,-102.286,-133.716,67.734,-15.912,-49.287,0,0,0,0,0
92113,4930,-1458,9695,20.386,24.600,7709.300,1798.736,794.657,1279.947,831.857,-265.286,465.854,969.424,191.720,138.507,0,0,1,0,0
92213,-1983,-1128,12247,-14.729,15.700,7768.757,1813.450,803.972,1388.116,-351.143,-89.000,594.575,147.142,93.157,1081.689,0,0,0,0,0
92313,-797,685,7653,-16.857,29.443,7758.100,1814.280,807.068,1386.099,-21.286,137.429,-106.572,8.293,30.953,-20.173,0,0,0,0,0
92413,-939,679,8216,-19.657,33.900,7761.400,1815.549,809.777,1386.910,-28.000,44.571,32.998,12.693,27.088,8.109,0,0,0,0,0
92513,-2780,695,5946,-75.171,47.871,7734.114,1839.534,812.620,1403.470,-555.143,139.714,-272.856,239.849,28.438,165.602,0,0,0,0,0
92613,545,-1213,7527,-78.857,34.043,7728.171,1838.029,825.619,1403.453,-36.857,-138.286,-59.429,-15.054,129.987,-0.165,0,0,0,0,0
92713,-1494,19,8013,-82.300,26.857,7721.071,1840.449,823.527,1400.735,-34.429,-71.857,-71.001,24.202,-20.919,-27.186,0,0,0,0,0
92813,1203,-643,9398,-73.471,23.014,7735.514,1845.105,826.013,1412.688,88.286,-38.429,144.429,46.562,24.854,119.530,0,0,0,0,0
92913,897,-53,8609,-52.571,3.243,7743.214,1847.692,810.893,1415.955,209.000,-197.714,77.002,25.868,-151.192,32.675,0,0,0,0,0
93013,-2542,546,9063,-112.129,38.843,7756.514,1859.745,778.595,1423.895,-595.571,356.000,132.998,120.532,-322.986,79.397,0,0,0,0,0
93113,-2789,1888,5857,-130.700,77.800,7716.514,1879.785,801.581,1437.302,-185.714,389.571,-400.000,200.396,229.859,134.072,0,0,0,0,0
93213,2692,878,7716,-69.643,92.857,7730.500,1900.946,806.556,1432.458,610.571,150.571,139.858,211.613,49.751,-48.441,0,0,0,0,0
93313,-441,-1550,8913,-85.414,75.314,7766.214,1899.381,828.446,1430.328,-157.714,-175.429,357.144,-15.646,218.901,-21.299,0,0,0,0,0
93413,-2453,1154,6896,-120.743,76.343,7782.257,1919.979,829.739,1414.087,-353.286,10.286,160.430,205.980,12.929,-162.406,0,0,0,0,0
93513,4067,454,5962,-109.771,88.286,7754.600,1941.562,829.072,1430.391,109.714,119.429,-276.572,215.833,-6.668,163.041,0,0,0,0,0
93613,-2119,1999,7941,-139.229,106.029,7734.800,1956.126,856.044,1418.028,-294.571,177.429,-198.003,145.632,269.724,-123.634,0,0,0,0,0
93713,-2049,1353,6979,-142.714,123.429,7715.057,1959.306,868.741,1418.793,-34.857,174.000,-197.427,31.804,126.964,7.648,0,0,0,0,0
93813,1221,-565,7668,-85.900,109.543,7758.800,1940.273,871.860,1368.577,568.143,-138.857,437.427,-190.334,31.190,-502.163,0,0,0,0,0
93913,-776,-394,8709,-122.514,103.586,7774.300,1928.733,873.853,1373.099,-366.143,-59.571,155.000,-115.399,19.933,45.223,0,0,0,0,0
94013,-826,1162,8812,-87.114,104.457,7811.986,1892.414,874.877,1364.836,354.000,8.714,376.860,-363.192,10.239,-82.625,0,0,0,0,0
94113,-2910,1465,4733,-159.900,136.214,7760.614,1901.583,883.300,1411.294,-727.857,317.571,-513.716,91.699,84.232,464.578,0,0,0,0,0
94213,2111,330,6168,-133.200,147.714,7709.086,1920.070,880.504,1402.627,267.000,115.000,-515.283,184.869,-27.966,-86.671,0,0,0,0,0
94313,288,-77,10496,-139.814,152.700,7726.500,1917.809,878.226,1429.299,-66.143,49.857,174.141,-22.611,-22.775,266.720,0,0,0,0,0
94413,-1198,419,8888,-106.971,158.514,7744.271,1879.335,878.622,1435.881,328.429,58.143,177.715,-384.744,3.964,65.823,0,0,0,0,0
94513,1212,-225,6937,-123.543,147.786,7763.914,1862.442,878.655,1415.149,-165.714,-107.286,196.426,-168.933,0.324,-207.324,0,0,0,0,0
94613,-770,-383,8516,-113.286,131.357,7817.800,1856.867,877.674,1370.233,102.571,-164.286,538.857,-55.742,-9.808,-449.158,0,0,0,0,0
94713,1121,-615,7042,-145.429,136.986,7797.457,1815.284,871.585,1371.029,-321.429,56.286,-203.428,-415.837,-60.890,7.959,0,0,0,0,0
94813,227,509,5973,-89.686,137.686,7747.886,1765.265,871.864,1373.366,557.429,7.000,-495.713,-500.188,2.787,23.365,0,0,0,0,0
94913,349,370,8130,-114.300,151.100,7755.586,1746.868,868.103,1373.975,-246.143,134.143,77.002,-183.972,-37.606,6.095,0,0,0,0,0
95013,-857,180,9907,-117.286,134.929,7799.186,1747.956,856.797,1392.998,-29.857,-161.714,435.996,10.881,-113.062,190.227,0,0,0,0,0
95113,2020,-600,7929,-90.871,130.986,7801.872,1765.990,859.531,1393.064,264.143,-39.429,26.860,180.345,27.336,0.664,0,0,0,0,0
95213,-1684,483,6333,-106.386,126.200,7779.671,1775.124,856.620,1403.871,-155.143,-47.857,-222.002,91.337,-29.109,108.069,0,0,0,0,0
95313,2313,-123,7406,-67.029,114.971,7773.200,1797.645,854.659,1404.534,393.571,-112.286,-64.712,225.210,-19.609,6.633,0,0,0,0,0
95413,-1963,12,8234,-102.843,116.329,7780.043,1810.045,854.419,1405.596,-358.143,13.571,68.428,124.004,-2.400,10.612,0,0,0,0,0
95513,1435,257,8013,-89.229,111.300,7773.886,1817.960,852.538,1403.616,136.143,-50.286,-61.572,79.144,-18.807,-19.795,0,0,0,0,0
95613,2779,-482,8275,-42.086,98.986,7765.500,1848.680,854.791,1398.836,471.429,-123.143,-83.857,307.200,22.524,-47.802,0,0,0,0,0
95713,-2907,190,8020,-96.314,105.871,7763.100,1876.045,853.554,1398.253,-542.286,68.857,-23.999,273.652,-12.368,-5.831,0,0,0,0,0
95813,716,-192,6879,-69.457,94.457,7776.514,1874.024,852.117,1385.141,268.571,-114.143,134.141,-20.212,-14.366,-131.117,0,0,0,0,0
95913,-824,-234,8466,-100.814,103.600,7777.971,1868.013,845.081,1385.812,-313.571,91.429,14.570,-60.106,-70.359,6.708,0,0,0,0,0
96013,152,188,8322,-54.471,87.314,7796.800,1833.145,832.216,1384.121,463.429,-162.857,188.286,-348.679,-128.658,-16.909,0,0,0,0,0
96113,631,-392,9615,-70.057,76.471,7831.500,1822.583,833.444,1398.744,-155.857,-108.429,347.002,-105.624,12.288,146.228,0,0,0,0,0
96213,-2403,82,7764,-118.429,91.757,7814.986,1838.852,823.535,1392.605,-483.714,152.857,-165.142,162.693,-99.097,-61.384,0,0,0,0,0
96313,1272,238,6479,-78.700,95.714,7781.443,1838.421,823.562,1396.099,397.286,39.571,-335.430,-4.308,0.276,34.933,0,0,0,0,0
96413,94,-517,6811,-81.957,95.186,7761.543,1837.910,823.943,1399.856,-32.571,-5.286,-198.999,-5.110,3.812,37.578,0,0,0,0,0
96513,-7,-684,9430,-91.286,92.029,7779.114,1835.848,826.496,1412.909,-93.286,-31.571,175.713,-20.623,25.524,130.522,0,0,0,0,0
96613,-230,-280,7320,-93.786,90.800,7741.957,1835.916,826.984,1390.109,-25.000,-12.286,-371.572,0.682,4.879,-227.996,0,0,0,0,0
96713,1186,-229,7915,-54.143,94.471,7720.257,1833.160,824.983,1375.304,396.429,36.714,-216.997,-27.562,-20.009,-148.055,0,0,0,0,0
96813,1680,161,7696,-89.257,110.757,7736.829,1775.146,814.821,1367.903,-351.143,162.857,165.713,-580.137,-101.621,-74.008,0,0,0,0,0
96913,-774,228,9670,-70.971,123.814,7740.128,1761.353,809.253,1372.277,182.857,130.571,32.998,-137.937,-55.681,43.743,0,0,0,0,0
97013,1272,41,8406,-29.471,111.800,7780.243,1758.281,804.134,1349.932,415.000,-120.143,401.143,-30.723,-51.187,-223.452,0,0,0,0,0
97113,-197,-591,8879,-56.214,110.414,7813.243,1746.349,805.260,1348.152,-267.429,-13.857,330.000,-119.318,11.255,-17.795,0,0,0,0,0
97213,1329,-344,7764,-43.157,119.343,7768.743,1753.226,796.661,1296.649,130.571,89.286,-445.000,68.777,-85.988,-515.029,0,0,0,0,0
97313,-1270,-554,6946,-56.757,91.571,7770.957,1758.988,785.690,1295.109,-136.000,-277.714,22.144,57.617,-109.707,-15.402,0,0,0,0,0
97413,1936,247,6431,-62.643,93.343,7769.486,1751.606,785.898,1296.572,-58.857,17.714,-14.712,-73.822,2.084,14.623,0,0,0,0,0
97513,-668,-263,8589,-71.800,97.843,7764.386,1753.070,782.938,1292.630,-91.571,45.000,-51.001,14.645,-29.606,-39.414,0,0,0,0,0
97613,961,-1137,8638,-24.229,69.057,7782.029,1735.179,790.728,1296.001,475.714,-287.857,176.431,-178.918,77.906,33.707,0,0,0,0,0
97713,-1054,-970,7809,13.357,29.057,7795.229,1683.192,771.217,1291.495,375.857,-400.000,131.997,-519.869,-195.112,-45.060,0,0,0,0,0
97813,1110,-1939,9530,18.686,-17.157,7845.614,1686.062,790.596,1289.390,53.286,-462.143,503.857,28.704,193.787,-21.053,0,0,0,0,0
97913,-2953,-991,7097,-16.657,-36.700,7818.400,1721.677,797.489,1284.791,-353.429,-195.429,-272.144,356.155,68.929,-45.989,0,0,0,0,0
98013,1027,-1872,7495,-8.871,-59.000,7837.957,1725.144,826.157,1269.205,77.857,-223.000,195.571,34.662,286.678,-155.856,0,0,0,0,0
98113,282,-1006,7132,-11.914,-57.171,7831.700,1724.440,823.914,1271.588,-30.429,18.286,-62.568,-7.037,-22.424,23.832,0,0,0,0,0
98213,564,-1502,8264,32.114,-94.657,7859.071,1699.051,829.089,1259.924,440.286,-374.857,273.711,-253.893,51.742,-116.643,0,0,0,0,0
98313,-495,-2811,11699,-2.686,-132.486,7890.343,1684.480,889.549,1325.948,-348.000,-378.286,312.715,-145.702,604.604,660.238,0,1,0,0,0
98413,-2922,789,9388,-27.571,-137.300,7915.571,1714.294,883.617,1337.354,-248.857,-48.143,252.285,298.135,-59.317,114.061,0,0,0,0,0
98513,2259,-554,6297,-18.871,-124.600,7905.457,1724.302,871.059,1346.846,87.000,127.000,-101.143,100.076,-125.583,94.918,0,0,0,0,0
98613,-32,-2472,6986,-13.143,-168.686,7922.143,1723.582,909.794,1327.984,57.286,-440.857,166.860,-7.191,387.351,-188.615,0,0,0,0,0
98713,1162,-908,7940,-14.400,-166.229,7939.829,1722.693,907.559,1319.836,-12.571,24.571,176.855,-8.898,-22.352,-81.486,0,0,0,0,0
98813,-543,-1042,8235,-1.129,-191.586,7964.986,1714.973,906.877,1308.390,132.714,-253.571,251.572,-77.192,-6.821,-114.462,0,0,0,0,0
98913,874,-684,6855,13.343,-202.243,7960.514,1718.020,908.216,1311.636,144.714,-106.572,-44.717,30.466,13.397,32.468,0,0,0,0,0
99013,44,-2463,9654,-9.829,-234.843,7988.872,1706.473,946.997,1326.402,-231.714,-326.000,283.574,-115.466,387.802,147.655,0,0,0,0,0
99113,429,-951,7026,-74.129,-227.600,7950.743,1600.646,939.523,1315.123,-643.000,72.428,-381.289,-1058.269,-74.733,-112.788,0,0,0,0,0
99213,1832,-3556,10191,-19.629,-262.286,7921.372,1599.672,1013.992,1239.637,545.000,-346.857,-293.711,-9.750,744.687,-754.862,0,0,0,0,0
99313,-777,-3190,9499,-19.343,-317.643,7947.743,1599.535,1065.245,1253.208,2.857,-553.571,263.711,-1.370,512.527,135.713,0,0,0,0,0
99413,1664,-253,7878,17.843,-330.957,7942.914,1607.957,1058.508,1252.816,371.857,-133.143,-48.286,84.225,-67.369,-3.917,0,0,0,0,0
99513,-1259,263,8206,39.571,-337.129,7975.200,1580.037,1053.757,1229.849,217.286,-61.714,322.861,-279.203,-47.509,-229.673,0,0,0,0,0
99613,-125,-525,8754,30.000,-327.300,7992.729,1578.975,1048.738,1232.078,-95.714,98.286,175.283,-10.616,-50.188,22.290,0,0,0,0,0
99713,-433,-470,8866,45.157,-334.286,8004.914,1569.336,1048.036,1236.429,151.571,-69.857,121.855,-96.389,-7.015,43.508,0,0,0,0,0
99813,-707,68,8537,17.871,-324.129,7992.614,1565.568,1048.441,1226.754,-272.857,101.571,-122.998,-37.687,4.042,-96.750,0,0,0,0,0
99913,178,-302,7805,7.600,-327.686,7981.128,1562.121,1047.937,1224.691,-102.714,-35.571,-114.858,-34.465,-5.035,-20.626,0,0,0,0,0
100013,-150,-583,8196,41.771,-343.814,7968.743,1531.844,1043.043,1218.053,341.714,-161.286,-123.857,-302.773,-48.942,-66.378,0,0,0,0,0
100113,-803,-54,8532,70.143,-371.557,8006.957,1497.151,1008.569,1192.904,283.714,-277.428,382.144,-346.930,-344.739,-251.497,0,0,0,0,0
100213,326,-90,7820,36.343,-385.386,8008.443,1463.916,997.922,1192.605,-338.000,-138.286,14.858,-332.346,-106.475,-2.985,0,0,0,0,0
100313,-106,-1075,8946,41.129,-378.600,8008.914,1462.895,991.574,1192.969,47.857,67.857,4.712,-10.209,-63.477,3.638,0,0,0,0,0
100413,494,-539,7128,83.229,-402.786,8012.229,1432.604,974.395,1190.192,421.000,-241.857,33.145,-302.915,-171.785,-27.775,0,0,0,0,0
100513,-20,-1648,8765,24.843,-432.814,8052.271,1349.954,979.902,1167.476,-583.857,-300.286,400.430,-826.497,55.070,-227.161,0,0,0,0,0
100613,237,-530,7444,58.500,-468.943,8045.171,1325.228,935.177,1169.640,336.571,-361.286,-71.001,-247.264,-447.252,21.643,0,0,0,0,0
100713,-1690,-221,8364,63.629,-491.429,8064.957,1317.735,909.675,1163.133,51.286,-224.857,197.856,-74.924,-255.026,-65.065,0,0,0,0,0
100813,-443,-701,6939,39.857,-493.371,8054.543,1311.637,909.975,1169.885,-237.714,-19.429,-104.141,-60.981,3.002,67.516,0,0,0,0,0
100913,1440,-313,7877,71.514,-492.214,8042.657,1318.289,910.152,1167.399,316.571,11.571,-118.857,66.522,1.771,-24.857,0,0,0,0,0
101013,152,177,9255,85.486,-506.286,8048.986,1313.878,891.900,1172.742,139.714,-140.714,63.286,-44.111,-182.525,53.423,0,0,0,0,0
101113,-2120,-176,8870,96.771,-529.729,8108.086,1291.299,860.802,1106.516,112.857,-234.429,591.001,-225.795,-310.977,-662.261,0,0,0,0,0
