-- BIOS V2.0 --
-- Compiled: May 30 2019 08:16:15 --
tstm,aX,aY,aZ,meanX,meanY,meanZ,stdX,stdY,stdZ,meanDiffX,meanDiffY,meanDiffZ,stdDiffX,stdDiffY,stdDiffZ,HardAccel,HardBrake,LaneChanL,LaneChanR,ui8LaneHole,Q
-- BIOS V2.0 --
-- Compiled: May 30 2019 08:16:15 --
tstm,aX,aY,aZ,meanX,meanY,meanZ,stdX,stdY,stdZ,meanDiffX,meanDiffY,meanDiffZ,stdDiffX,stdDiffY,stdDiffZ,HardAccel,HardBrake,LaneChanL,LaneChanR,ui8LaneHole,Q
14114,-1582,421,8289,-847.186,1187.471,7888.971,937.369,584.097,699.720,-201.714,-129.286,80.142,8.373,71.364,14.163,0,0,0,0,0,5.000
14214,-1355,517,7851,-864.343,1178.771,7890.429,935.514,589.459,699.533,-171.571,-87.000,14.575,-18.553,53.616,-1.868,0,0,0,0,0,5.000
14314,-1994,-582,7486,-890.629,1151.629,7884.343,941.019,625.091,701.170,-262.858,-271.429,-60.859,55.055,356.318,16.369,0,0,0,0,0,5.000
14414,-1075,387,7207,-903.014,1141.357,7878.000,937.652,631.629,705.248,-123.857,-102.714,-63.428,-33.666,65.383,40.784,0,0,0,0,0,5.000
14514,-572,233,7567,-910.071,1130.086,7874.986,933.265,640.634,706.120,-70.571,-112.715,-30.142,-43.871,90.051,8.715,0,0,0,0,0,5.000
14614,-2465,162,8616,-944.443,1116.614,7885.543,945.513,650.853,711.574,-343.715,-134.714,105.571,122.478,102.191,54.545,0,0,0,0,0,5.000
14714,-595,1300,7539,-953.586,1124.514,7876.314,938.973,649.674,711.820,-91.428,79.000,-92.285,-65.400,-11.791,2.455,0,0,0,0,0,5.000
14814,-247,1316,9331,-952.271,1127.414,7906.271,939.896,650.069,728.098,13.143,29.000,299.570,9.234,3.950,162.780,0,0,0,0,0,5.000
14914,-383,358,7678,-939.986,1121.171,7921.957,941.635,655.309,710.982,122.857,-62.429,156.855,17.384,52.397,-171.152,0,0,0,0,0,5.000
15014,-200,460,7631,-924.543,1123.971,7913.643,944.775,652.051,710.933,154.429,28.000,-83.140,31.398,-32.579,-0.491,0,0,0,0,0,5.000
15114,-368,390,7789,-919.357,1119.200,7922.386,946.817,656.169,705.563,51.857,-47.715,87.427,20.421,41.184,-53.700,0,0,0,0,0,5.000
15214,-845,344,8530,-923.929,1108.600,7920.800,945.673,662.582,704.070,-45.715,-106.000,-15.859,-11.432,64.127,-14.937,0,0,0,0,0,5.000
15314,-1453,298,7757,-946.143,1100.629,7897.043,939.557,668.899,680.753,-222.143,-79.714,-237.568,-61.164,63.174,-233.169,0,0,0,0,0,5.000
15414,-10811,4226,14708,-1094.057,1157.900,7993.186,1499.230,756.660,1056.782,-1479.142,572.715,961.426,5596.730,877.606,3760.298,1,0,0,1,1,5.000
15514,-4701,2405,6431,-1149.257,1180.514,7979.329,1558.704,769.824,1070.724,-552.001,226.143,-138.569,594.739,131.641,139.418,0,0,0,0,0,5.000
15614,-1705,160,7926,-1161.743,1169.271,7990.643,1559.605,778.846,1065.906,-124.856,-112.428,113.145,9.008,90.222,-48.186,0,0,0,0,0,5.000
15714,-597,780,8106,-1154.314,1164.886,7998.029,1561.038,780.160,1064.888,74.285,-43.857,73.857,14.331,13.141,-10.178,0,0,0,0,0,5.000
15814,-1314,272,8441,-1158.986,1154.071,8005.029,1561.019,787.184,1066.165,-46.714,-108.143,70.000,-0.184,70.237,12.776,0,0,0,0,0,5.000
15914,708,527,8488,-1136.457,1145.714,8014.671,1576.346,790.684,1067.437,225.286,-83.572,96.426,153.269,34.998,12.714,0,0,0,0,0,5.000
16014,-885,804,8092,-1148.543,1137.829,7992.514,1571.120,791.300,1049.351,-120.857,-78.856,-221.572,-52.260,6.158,-180.857,0,0,0,0,0,5.000
16114,-862,620,8425,-1142.329,1154.300,8007.657,1571.381,768.006,1047.833,62.142,164.714,151.431,2.607,-232.935,-15.177,0,0,0,0,0,5.000
16214,-862,527,8672,-1128.743,1165.300,8010.014,1569.634,753.287,1049.139,135.858,110.000,23.569,-17.471,-147.188,13.057,0,0,0,0,0,5.000
16314,-976,768,7696,-1115.600,1149.500,8005.200,1567.004,749.848,1049.795,131.428,-158.000,-48.140,-26.299,-34.393,6.564,0,0,0,0,0,5.000
16414,-1513,726,7930,-1121.257,1116.586,8011.886,1567.714,716.403,1047.803,-56.572,-329.143,66.855,7.095,-334.456,-19.923,0,0,0,0,0,5.000
16514,1769,-658,8597,-1071.929,1069.829,8032.429,1603.155,723.850,1044.973,493.286,-467.571,205.430,354.412,74.479,-28.302,0,0,0,0,0,5.000
16614,-1225,1409,7498,-1065.943,1066.443,8030.029,1601.789,721.699,1046.004,59.857,-33.857,-23.999,-13.654,-21.518,10.312,0,0,0,0,0,5.000
16714,-574,659,8134,-1057.929,1054.171,8040.343,1602.827,721.219,1043.416,80.143,-122.715,103.140,10.375,-4.794,-25.885,0,0,0,0,0,5.000
16814,-969,673,8127,-1058.414,1037.429,8045.757,1602.795,716.253,1042.868,-4.857,-167.428,54.146,-0.321,-49.666,-5.480,0,0,0,0,0,5.000
16914,-867,668,8090,-1065.600,1018.129,8043.514,1600.792,707.694,1042.601,-71.857,-193.000,-22.432,-20.032,-85.584,-2.665,0,0,0,0,0,5.000
17014,-182,1914,8183,-1138.271,1045.243,8019.229,1434.973,705.135,1019.003,-726.715,271.142,-242.856,-1658.184,-25.596,-235.983,0,0,0,0,0,5.000
17114,-2456,-226,8022,-1157.514,1024.014,8024.786,1443.458,720.550,1017.942,-192.428,-212.285,55.571,84.849,154.151,-10.612,0,0,0,0,0,5.000
17214,-720,-330,8777,-1155.329,998.471,8044.214,1444.003,736.233,1019.134,21.857,-255.428,194.287,5.448,156.837,11.923,0,0,0,0,0,5.000
17314,-666,440,8803,-1150.743,981.729,8050.200,1445.040,735.417,1022.337,45.858,-167.429,59.858,10.369,-8.169,32.034,0,0,0,0,0,5.000
17414,-1158,-103,8271,-1159.929,957.600,8057.571,1443.011,742.865,1022.043,-91.858,-241.286,73.711,-20.283,74.482,-2.948,0,0,0,0,0,5.000
17514,-182,542,8320,-1158.514,942.971,8055.771,1443.921,740.820,1021.468,14.143,-146.285,-17.998,9.091,-20.451,-5.750,0,0,0,0,0,5.000
17614,-655,1091,8102,-1165.357,935.257,8067.700,1440.379,736.413,1017.053,-68.429,-77.143,119.287,-35.420,-44.064,-44.148,0,0,0,0,0,5.000
17714,-803,704,7988,-1163.300,918.686,8069.971,1440.792,728.335,1016.695,20.571,-165.714,22.710,4.133,-80.784,-3.580,0,0,0,0,0,5.000
17814,-649,698,7982,-1171.229,916.271,8067.814,1436.406,728.782,1016.719,-79.285,-24.143,-21.567,-43.856,4.474,0.241,0,0,0,0,0,5.000
17914,-63,838,7366,-1154.214,912.657,8061.243,1442.366,728.534,1019.742,170.143,-36.143,-65.718,59.601,-2.483,30.236,0,0,0,0,0,5.000
18014,-395,765,7873,-1138.486,897.529,8056.971,1444.555,720.402,1019.896,157.285,-151.286,-42.715,21.887,-81.317,1.534,0,0,0,0,0,5.000
18114,-1811,635,7869,-1181.300,883.286,8054.586,1419.218,715.580,1020.137,-428.143,-142.429,-23.853,-253.375,-48.223,2.415,0,0,0,0,0,5.000
18214,-1084,940,7039,-1201.457,872.686,8039.414,1407.625,709.137,1027.207,-201.571,-106.000,-151.719,-115.929,-64.433,70.696,0,0,0,0,0,5.000
18314,-1997,-1500,8978,-1221.257,834.943,8058.743,1408.927,762.127,1031.946,-198.000,-377.429,193.286,13.024,529.902,47.388,0,0,0,0,0,5.000
18414,779,3324,7915,-1199.571,860.400,8068.300,1427.740,813.359,1027.463,216.858,254.572,95.571,188.126,512.324,-44.832,0,0,0,0,0,5.000
18514,-133,778,7319,-1190.143,846.171,8055.657,1432.565,805.931,1031.153,94.286,-142.286,-126.426,48.250,-74.286,36.906,0,0,0,0,0,5.000
18614,-1647,422,6444,-1201.257,823.500,8038.543,1433.048,795.150,1047.686,-111.144,-226.714,-171.143,4.834,-107.805,165.327,0,0,0,0,0,5.000
18714,-2346,752,6584,-1223.357,812.329,8023.700,1438.592,790.570,1060.746,-221.000,-111.714,-148.428,55.439,-45.804,130.605,0,0,0,0,0,5.000
18814,-106,471,7450,-1212.700,803.800,8025.143,1444.056,790.986,1059.896,106.572,-85.286,14.429,54.644,4.159,-8.501,0,0,0,0,0,5.000
18914,-657,743,7650,-1203.000,794.586,8016.829,1445.475,787.877,1060.523,97.000,-92.143,-83.145,14.188,-31.084,6.270,0,0,0,0,0,5.000
19014,-563,772,8164,-1209.200,783.014,8012.914,1441.781,782.155,1059.467,-62.000,-115.714,-39.146,-36.937,-57.222,-10.566,0,0,0,0,0,5.000
19114,-1365,916,7998,-1206.286,772.386,8023.372,1441.257,775.190,1055.649,29.142,-106.285,104.575,-5.243,-69.653,-38.181,0,0,0,0,0,5.000
19214,-1167,1051,7530,-1203.471,772.086,8025.557,1441.139,775.078,1054.466,28.143,-3.000,21.855,-1.184,-1.121,-11.829,0,0,0,0,0,5.000
19314,-976,1067,7376,-1194.829,771.071,8024.586,1440.663,774.644,1055.032,86.428,-10.143,-9.712,-4.756,-4.332,5.665,0,0,0,0,0,5.000
19414,-364,781,8269,-1181.329,761.871,8051.700,1443.954,770.637,1036.411,135.000,-92.000,271.143,32.906,-40.071,-186.207,0,0,0,0,0,5.000
19514,-235,1096,8330,-1167.486,764.814,8082.271,1448.308,771.514,1012.328,138.429,29.429,305.713,43.545,8.765,-240.836,0,0,0,0,0,5.000
19614,-1531,771,8205,-1167.757,757.386,8092.329,1448.375,768.911,1009.998,-2.715,-74.285,100.571,0.664,-26.031,-23.303,0,0,0,0,0,5.000
19714,-46,582,8391,-1151.729,746.400,8104.400,1454.479,765.838,1008.444,160.287,-109.857,120.713,61.041,-30.723,-15.533,0,0,0,0,0,5.000
19814,152,-224,7670,-1135.800,722.857,8082.843,1462.541,769.966,1001.346,159.285,-235.429,-215.571,80.625,41.276,-70.981,0,0,0,0,0,5.000
19914,-1189,850,7158,-1133.829,707.014,8052.643,1462.375,755.644,996.895,19.714,-158.428,-301.997,-1.659,-143.217,-44.510,0,0,0,0,0,5.000
20014,-1129,544,7959,-1131.071,700.957,8039.157,1462.200,755.227,991.672,27.572,-60.571,-134.858,-1.757,-4.171,-52.232,0,0,0,0,0,5.000
20114,-502,307,8287,-1117.971,697.814,8036.600,1463.668,756.401,990.798,131.000,-31.429,-25.571,14.688,11.742,-8.737,0,0,0,0,0,5.000
20214,-1022,1524,7801,-1103.329,712.786,8025.614,1459.422,762.212,989.085,146.428,149.714,-109.858,-42.461,58.106,-17.132,0,0,0,0,0,5.000
20314,496,251,8654,-1058.629,706.214,8036.514,1459.804,764.179,991.742,447.001,-65.714,108.999,3.820,19.675,26.570,0,0,0,0,0,5.000
20414,-779,359,7943,-1045.000,700.043,8045.971,1457.897,765.214,987.640,136.285,-61.714,94.570,-19.076,10.342,-41.017,0,0,0,0,0,5.000
20514,-871,922,6483,-1036.914,702.529,8036.043,1457.270,765.648,999.735,80.857,24.857,-99.282,-6.270,4.342,120.951,0,0,0,0,0,5.000
20614,-808,292,7244,-1031.214,696.486,8042.186,1457.374,767.193,993.509,57.001,-60.428,61.426,1.038,15.454,-62.261,0,0,0,0,0,5.000
20714,-755,-353,7607,-1022.886,676.129,8033.229,1457.262,775.816,994.565,83.285,-203.571,-89.570,-1.111,86.232,10.560,0,0,0,0,0,5.000
20814,-29,1392,7248,-1003.429,682.571,8007.743,1461.304,779.852,991.498,194.572,64.428,-254.858,40.420,40.352,-30.671,0,0,0,0,0,5.000
20914,788,-80,9338,-975.771,667.243,8019.986,1476.548,784.133,1002.496,276.572,-153.286,122.432,152.434,42.812,109.981,0,0,0,0,0,5.000
21014,-887,44,9443,-974.729,656.171,8038.071,1476.584,787.376,1016.488,10.428,-110.714,180.854,0.364,32.437,139.917,0,0,0,0,0,5.000
21114,80,400,8161,-950.986,655.871,8036.243,1479.987,787.470,1016.150,237.429,-3.000,-18.286,34.027,0.936,-3.381,0,0,0,0,0,5.000
21214,-795,52,7689,-942.986,649.229,8033.929,1479.295,790.568,1016.754,80.000,-66.428,-23.140,-6.921,30.985,6.035,0,0,0,0,0,5.000
21314,-246,169,7304,-918.014,659.957,8031.329,1476.092,778.795,1018.383,249.714,107.286,-26.001,-32.024,-117.731,16.293,0,0,0,0,0,5.000
21414,-299,6,8116,-906.929,654.514,8044.314,1477.785,782.009,1013.573,110.857,-54.429,129.858,16.925,32.133,-48.100,0,0,0,0,0,5.000
21514,-236,-20,8164,-902.129,650.900,8052.843,1479.410,784.529,1012.031,48.000,-36.143,85.283,16.248,25.204,-15.416,0,0,0,0,0,5.000
21614,-319,-19,8411,-871.471,648.314,8049.914,1468.903,786.432,1010.693,306.572,-25.858,-29.287,-105.063,19.030,-13.381,0,0,0,0,0,5.000
21714,-327,229,8893,-867.643,633.014,8069.257,1469.968,784.019,1013.682,38.286,-153.000,193.433,10.645,-24.130,29.889,0,0,0,0,0,5.000
21814,-771,-213,8746,-875.129,611.171,8060.900,1468.121,785.984,1005.625,-74.857,-218.428,-83.574,-18.466,19.643,-80.571,0,0,0,0,0,5.000
21914,244,113,8209,-866.171,607.671,8068.486,1473.001,787.647,1004.710,89.572,-35.000,75.859,48.799,16.633,-9.147,0,0,0,0,0,5.000
22014,-1327,367,8057,-882.271,606.343,8074.571,1471.790,787.973,1003.331,-161.000,-13.286,60.854,-12.108,3.264,-13.791,0,0,0,0,0,5.000
22114,-202,-176,8152,-879.900,598.257,8079.757,1472.751,793.039,1002.780,23.714,-80.857,51.860,9.603,50.663,-5.516,0,0,0,0,0,5.000
22214,-704,561,7847,-877.886,601.357,8070.000,1472.893,792.463,1001.673,20.143,31.000,-97.573,1.426,-5.762,-11.063,0,0,0,0,0,5.000
22314,288,267,7962,-853.014,600.914,8072.929,1477.663,792.641,1001.054,248.715,-4.428,29.287,47.701,1.780,-6.196,0,0,0,0,0,5.000
22414,-272,359,8232,-702.457,545.671,7980.414,865.478,662.067,604.147,1505.571,-552.429,-925.146,-6121.854,-1305.745,-3969.061,0,0,0,0,0,5.000
22514,-381,543,8494,-640.743,519.071,8009.886,719.941,623.087,577.580,617.143,-266.000,294.717,-1455.372,-389.796,-265.679,0,0,0,0,0,5.000
22614,-900,755,7909,-629.243,527.571,8009.643,709.198,622.189,577.618,115.000,85.000,-2.427,-107.427,-8.984,0.389,0,0,0,0,0,5.000
22714,-361,258,8769,-625.871,520.114,8019.114,709.904,622.247,584.515,33.715,-74.572,94.712,7.058,0.580,68.969,0,0,0,0,0,5.000
22814,-290,724,8576,-611.243,526.571,8021.043,706.114,621.984,586.125,146.285,64.572,19.287,-37.902,-2.630,16.092,0,0,0,0,0,5.000
22914,-567,745,8047,-629.457,529.686,8014.743,688.062,622.523,583.436,-182.143,31.143,-63.003,-180.511,5.397,-26.890,0,0,0,0,0,5.000
23014,-135,408,8014,-618.743,524.029,8013.628,689.837,621.804,583.361,107.143,-56.572,-11.143,17.744,-7.195,-0.742,0,0,0,0,0,5.000
23114,-1034,379,7745,-621.200,520.586,8003.914,691.004,621.930,582.091,-24.572,-34.429,-97.144,11.674,1.263,-12.708,0,0,0,0,0,5.000
23214,-138,666,7655,-610.857,522.571,7989.386,692.739,622.169,577.911,103.429,19.857,-145.283,17.345,2.392,-41.795,0,0,0,0,0,5.000
23314,-113,587,8204,-598.529,519.986,7996.643,693.809,621.520,577.371,123.286,-25.857,72.573,10.704,-6.497,-5.404,0,0,0,0,0,5.000
23414,-1088,615,8676,-592.457,518.400,8007.300,687.612,621.134,582.901,60.714,-15.857,106.567,-61.970,-3.862,55.299,0,0,0,0,0,5.000
23514,-1123,819,8449,-633.771,539.500,8005.186,628.857,605.708,581.023,-413.143,211.000,-21.143,-587.555,-154.255,-18.774,0,0,0,0,0,5.000
23614,-402,515,8351,-622.014,526.729,8017.372,625.377,596.597,579.201,117.571,-127.714,121.860,-34.798,-91.115,-18.228,0,0,0,0,0,5.000
23714,-1472,608,8139,-634.843,526.000,8017.443,633.419,596.466,579.215,-128.286,-7.286,0.713,80.422,-1.311,0.146,0,0,0,0,0,5.000
23814,-970,740,7790,-634.857,526.957,8012.628,633.427,596.755,579.685,-0.143,9.572,-48.145,0.076,2.891,4.697,0,0,0,0,0,5.000
23914,-7,762,7628,-622.571,528.300,8006.029,637.134,597.176,581.394,122.857,13.428,-65.996,37.076,4.214,17.091,0,0,0,0,0,5.000
24014,-1413,508,7732,-640.157,508.214,7999.586,641.703,573.403,581.896,-175.858,-200.857,-64.429,45.692,-237.732,5.018,0,0,0,0,0,5.000
24114,-432,917,7776,-611.243,524.543,7996.071,603.707,568.516,582.492,289.143,163.286,-35.146,-379.965,-48.869,5.966,0,0,0,0,0,5.000
24214,490,684,7942,-593.957,539.029,7984.143,617.510,559.403,574.878,172.857,144.857,-119.282,138.035,-91.129,-76.144,0,0,0,0,0,5.000
24314,-895,569,7159,-597.229,540.871,7960.657,618.489,559.286,574.526,-32.714,18.428,-234.858,9.789,-1.168,-3.514,0,0,0,0,0,5.000
24414,-718,840,7308,-590.943,554.343,7946.900,614.984,554.955,578.447,62.857,134.714,-137.573,-35.052,-43.309,39.202,0,0,0,0,0,5.000
24514,-966,305,8024,-602.143,550.957,7942.671,614.573,555.743,576.783,-112.000,-33.857,-42.285,-4.107,7.874,-16.633,0,0,0,0,0,5.000
24614,-896,708,8664,-605.586,545.486,7950.700,615.534,552.273,582.825,-34.428,-54.714,80.288,9.608,-34.693,60.416,0,0,0,0,0,5.000
24714,-40,634,8345,-594.686,544.486,7955.800,618.689,552.049,584.688,109.000,-10.000,50.996,31.552,-2.247,18.631,0,0,0,0,0,5.000
24814,865,893,7437,-573.057,547.271,7948.014,642.421,553.307,587.907,216.286,27.857,-77.856,237.318,12.583,32.191,0,0,0,0,0,5.000
24914,-195,912,8249,-574.943,548.329,7960.628,641.114,553.932,584.748,-18.857,10.571,126.143,-13.075,6.248,-31.588,0,0,0,0,0,5.000
25014,-48,-86,7900,-569.986,536.171,7961.014,643.822,558.364,584.699,49.572,-121.571,3.857,27.079,44.321,-0.490,0,0,0,0,0,5.000
25114,-2550,978,7160,-580.543,541.071,7950.886,669.627,560.710,592.297,-105.571,49.000,-101.284,258.048,23.459,75.977,0,0,0,0,0,5.000
25214,-260,6,9590,-568.771,527.729,7987.329,667.913,562.169,613.180,117.714,-133.428,364.429,-17.134,14.591,208.831,0,0,0,0,0,5.000
25314,-823,-310,9446,-552.000,544.729,7994.014,646.227,516.752,626.355,167.714,170.000,66.855,-216.861,-454.174,131.751,0,0,0,0,0,5.000
25414,-388,690,7295,-568.671,507.100,7985.157,626.425,394.423,631.770,-166.714,-376.286,-88.569,-198.024,-1223.281,54.149,0,0,0,0,0,5.000
25514,-617,1020,6433,-575.586,510.557,7972.500,624.245,397.829,653.491,-69.142,34.571,-126.572,-21.796,34.052,217.209,0,0,0,0,0,5.000
25614,-949,854,6497,-565.614,516.729,7973.257,612.516,399.753,651.748,99.714,61.714,7.573,-117.294,19.244,-17.429,0,0,0,0,0,5.000
25714,-98,452,6433,-533.500,512.443,7971.100,576.182,398.815,656.575,321.143,-42.857,-21.572,-363.340,-9.383,48.266,0,0,0,0,0,5.000
25814,101,1139,7172,-530.543,521.986,7967.128,578.893,405.643,660.544,29.572,95.428,-39.717,27.114,68.277,39.688,0,0,0,0,0,5.000
25914,-305,1871,9549,-525.514,538.100,7994.257,579.301,435.415,685.487,50.286,161.143,271.289,4.084,297.724,249.435,0,0,0,0,0,5.000
26014,1142,1500,10772,-501.157,548.500,8031.514,612.127,449.349,760.473,243.571,104.000,372.568,328.258,139.336,749.860,0,0,0,0,0,5.000
26114,1562,1088,9855,-459.343,550.957,8058.043,650.461,451.815,790.633,418.143,24.572,265.288,383.339,24.665,301.601,0,0,0,0,0,5.000
26214,-493,-300,7768,-449.714,531.657,8061.443,644.879,458.843,788.865,96.286,-193.000,33.999,-55.819,70.280,-17.682,0,0,0,0,0,5.000
26314,-1021,1747,6831,-450.357,541.371,8053.657,645.426,476.916,798.226,-6.429,97.142,-77.856,5.465,180.734,93.604,0,0,0,0,0,5.000
26414,-788,618,7806,-456.414,539.043,8047.043,646.575,476.138,798.332,-60.571,-23.286,-66.143,11.497,-7.784,1.064,0,0,0,0,0,5.000
26514,673,647,8727,-443.443,532.629,8052.714,659.859,471.594,801.725,129.714,-64.142,56.714,132.834,-45.436,33.929,0,0,0,0,0,5.000
26614,1329,1130,7991,-402.586,537.757,8049.657,679.505,476.090,801.546,408.571,51.285,-30.571,196.460,44.950,-1.785,0,0,0,0,0,5.000
26714,-3601,1361,9897,-453.371,548.886,8071.171,776.834,485.995,830.122,-507.857,111.286,215.142,973.297,99.056,285.752,0,0,0,1,0,5.000
26814,2127,1182,10437,-425.157,568.971,8110.700,832.201,482.680,874.757,282.143,200.857,395.288,553.670,-33.147,446.353,0,0,0,0,0,5.000
26914,-2338,1058,10094,-441.571,571.943,8152.643,858.036,485.036,898.146,-164.143,29.714,419.429,258.345,23.553,233.893,0,0,0,0,0,5.000
27014,-278,877,10501,-429.414,576.700,8188.957,854.230,486.370,939.997,121.572,47.571,363.140,-38.056,13.339,418.511,0,0,0,0,0,5.000
27114,-1095,453,8751,-437.886,578.786,8195.586,857.841,485.521,942.298,-84.714,20.857,66.289,36.106,-8.488,23.011,0,0,0,0,0,5.000
27214,-1647,45,6531,-446.814,557.657,8177.443,867.077,476.016,961.747,-89.286,-211.285,-181.431,92.360,-95.049,194.482,0,0,0,0,0,5.000
27314,-1842,600,6304,-480.214,562.643,8143.872,875.109,474.604,985.254,-334.000,49.857,-335.713,80.322,-14.124,235.071,0,0,0,0,0,5.000
27414,291,727,6380,-464.929,567.900,8121.543,879.093,474.357,1007.023,152.857,52.571,-223.286,39.835,-2.468,217.697,0,0,0,0,0,5.000
27514,-1629,343,7236,-475.757,559.629,8132.300,888.644,473.157,993.392,-108.286,-82.714,107.568,95.518,-12.001,-136.310,0,0,0,0,0,5.000
27614,-1034,342,7939,-478.986,560.343,8142.229,890.255,472.790,987.923,-32.286,7.142,99.287,16.103,-3.669,-54.698,0,0,0,0,0,5.000
27714,-538,486,9503,-475.886,572.329,8169.314,889.666,459.944,998.808,31.000,119.857,270.859,-5.889,-128.459,108.856,0,0,0,0,0,5.000
27814,-727,-300,9356,-485.857,548.157,8199.429,888.512,460.692,1002.348,-99.714,-241.714,301.143,-11.537,7.479,35.403,0,0,0,0,0,5.000
27914,-1037,422,7632,-511.929,555.329,8175.057,877.458,454.726,995.082,-260.714,71.714,-243.716,-110.545,-59.655,-72.661,0,0,0,0,0,5.000
28014,176,236,7165,-496.743,558.071,8142.514,880.030,452.206,990.322,151.857,27.429,-325.430,25.721,-25.205,-47.604,0,0,0,0,0,5.000
28114,-579,566,6856,-506.157,560.443,8123.872,877.330,451.806,1002.013,-94.143,23.715,-186.426,-26.994,-4.001,116.909,0,0,0,0,0,5.000
28214,-492,1271,7519,-501.829,577.857,8121.443,876.641,455.351,1003.269,43.286,174.142,-24.287,-6.887,35.456,12.563,0,0,0,0,0,5.000
28314,-1360,394,7157,-517.743,581.071,8119.343,881.948,453.243,1005.130,-159.143,32.143,-21.001,53.069,-21.082,18.610,0,0,0,0,0,5.000
28414,798,74,8751,-502.071,582.043,8128.414,895.341,452.081,1007.921,156.714,9.714,90.713,133.923,-11.622,27.906,0,0,0,0,0,5.000
28514,-1479,755,8264,-519.829,593.114,8129.843,902.188,446.659,1008.041,-177.571,110.714,14.287,68.469,-54.223,1.202,0,0,0,0,0,5.000
28614,128,-159,10510,-513.443,591.114,8159.829,905.164,449.698,1046.446,63.857,-20.000,299.858,29.760,30.396,384.048,0,0,0,0,0,5.000
28714,-74,890,9121,-509.829,600.557,8163.086,906.405,448.935,1049.074,36.143,94.429,32.573,12.415,-7.637,26.285,0,0,0,0,0,5.000
28814,-165,703,8873,-501.171,613.643,8164.900,906.763,438.253,1050.190,86.572,130.858,18.140,3.581,-106.817,11.157,0,0,0,0,0,5.000
28914,176,828,7531,-502.143,623.857,8155.214,906.000,434.784,1052.862,-9.714,102.142,-96.855,-7.627,-34.690,26.718,0,0,0,0,0,5.000
29014,-1231,675,6503,-500.771,628.257,8133.014,904.823,433.719,1070.927,13.714,44.000,-222.002,-11.778,-10.645,180.652,0,0,0,0,0,5.000
29114,-31,466,7333,-498.329,637.429,8121.314,905.856,423.278,1075.121,24.428,91.714,-116.997,10.336,-104.416,41.943,0,0,0,0,0,5.000
29214,-970,1086,7787,-502.129,644.929,8120.457,907.268,426.496,1075.363,-38.000,75.000,-8.574,14.117,32.183,2.422,0,0,0,0,0,5.000
29314,-273,865,9440,-510.143,653.471,8141.571,902.719,424.826,1086.497,-80.143,85.428,211.143,-45.486,-16.698,111.338,0,0,0,0,0,5.000
29414,334,1044,9257,-501.486,663.257,8156.214,907.853,425.819,1094.495,86.571,97.857,146.431,51.335,9.924,79.976,0,0,0,0,0,5.000
29514,-1167,644,8548,-512.714,664.700,8156.986,911.148,425.580,1094.752,-112.286,14.429,7.715,32.951,-2.388,2.570,0,0,0,0,0,5.000
29614,79,571,7938,-498.729,662.071,8157.400,912.608,425.582,1094.663,139.857,-26.286,4.141,14.604,0.023,-0.886,0,0,0,0,0,5.000
29714,-588,436,7631,-501.971,664.614,8141.143,912.516,423.688,1093.910,-32.429,25.428,-162.568,-0.919,-18.943,-7.535,0,0,0,0,0,5.000
29814,-790,599,8056,-509.114,662.829,8133.714,912.786,423.697,1092.696,-71.429,-17.857,-74.287,2.697,0.093,-12.134,0,0,0,0,0,5.000
29914,419,790,7701,-495.029,663.471,8128.771,919.368,423.856,1093.859,140.857,6.429,-49.429,65.820,1.583,11.631,0,0,0,0,0,5.000
30014,-759,420,8583,-503.943,663.643,8136.900,918.859,423.755,1095.090,-89.143,1.714,81.284,-5.090,-1.009,12.303,0,0,0,0,0,5.000
30114,-276,592,8350,-493.114,666.686,8145.543,917.013,422.463,1094.350,108.286,30.428,86.431,-18.458,-12.921,-7.400,0,0,0,0,0,5.000
30214,-1075,330,8642,-506.500,661.886,8159.643,918.569,424.348,1094.297,-133.857,-48.000,141.001,15.561,18.851,-0.526,0,0,0,0,0,5.000
30314,-783,550,9412,-516.071,661.357,8176.900,917.910,424.464,1104.339,-95.714,-5.286,172.568,-6.597,1.160,100.424,0,0,0,0,0,5.000
30414,-264,984,9080,-504.300,666.629,8182.671,915.781,426.143,1107.982,117.714,52.715,57.715,-21.288,16.796,36.431,0,0,0,0,0,5.000
30514,-1523,819,8576,-510.014,666.629,8184.486,920.857,426.143,1108.521,-57.143,0.000,18.145,50.764,0.000,5.383,0,0,0,0,0,5.000
30614,177,679,8196,-501.743,668.971,8182.271,924.384,425.754,1108.341,82.714,23.428,-22.144,35.268,-3.895,-1.798,0,0,0,0,0,5.000
30714,-2137,725,7577,-511.243,670.643,8174.243,937.629,425.741,1110.658,-95.000,16.714,-80.288,132.449,-0.129,23.174,0,0,0,0,0,5.000
30814,-363,462,7680,-502.571,666.671,8172.671,936.152,426.371,1111.279,86.714,-39.714,-15.713,-14.771,6.306,6.202,0,0,0,0,0,5.000
30914,-559,1233,7265,-510.457,673.400,8167.486,934.267,431.508,1114.650,-78.857,67.286,-51.855,-18.846,51.369,33.713,0,0,0,0,0,5.000
31014,347,644,7642,-485.314,675.343,8166.200,933.322,431.065,1115.203,251.429,19.428,-12.856,-9.456,-4.432,5.532,0,0,0,0,0,5.000
31114,-480,985,8136,-486.000,676.314,8171.343,933.300,431.685,1114.222,-6.857,9.714,51.426,-0.219,6.197,-9.816,0,0,0,0,0,5.000
31214,-1045,250,9026,-507.929,670.114,8186.829,928.129,434.636,1118.451,-219.286,-62.000,154.858,-51.706,29.516,42.299,0,0,0,0,0,5.000
31314,368,-775,9022,-489.886,650.914,8213.442,932.694,467.148,1115.840,180.428,-192.000,266.138,45.651,325.121,-26.118,0,0,0,0,0,5.000
31414,-768,1187,6922,-490.600,655.871,8207.929,932.888,470.954,1121.241,-7.143,49.571,-55.137,1.935,38.058,54.016,0,0,0,0,0,5.000
31514,-1054,476,6850,-491.857,658.314,8191.157,933.587,469.569,1132.590,-12.571,24.429,-167.715,6.988,-13.848,113.485,0,0,0,0,0,5.000
31614,-348,889,6196,-484.029,660.900,8155.900,932.462,470.334,1155.504,78.286,25.858,-352.573,-11.248,7.642,229.141,0,0,0,0,0,5.000
31714,-28,1284,3629,-483.857,670.186,8088.529,932.545,476.092,1273.928,1.714,92.857,-673.711,0.828,57.584,1184.247,0,0,0,0,1,5.000
31814,80,-1405,10456,-495.071,637.357,8131.657,920.904,535.160,1301.937,-112.143,-328.286,431.284,-116.407,590.683,280.085,0,1,0,0,0,5.000
31914,-3739,808,5012,-545.700,635.871,8085.414,997.268,534.540,1353.417,-506.286,-14.857,-462.432,763.644,-6.205,514.797,0,0,0,0,0,5.000
32014,-533,932,8202,-552.629,650.414,8089.729,995.470,528.517,1353.300,-69.286,145.429,43.145,-17.986,-60.233,-1.165,0,0,0,0,0,5.000
32114,-584,181,7432,-524.543,639.029,8093.614,966.019,529.920,1351.014,280.858,-113.857,38.857,-294.509,14.032,-22.867,0,0,0,0,0,5.000
32214,113,572,7465,-519.214,647.114,8063.257,968.489,524.489,1340.885,53.286,80.857,-303.569,24.702,-54.304,-101.282,0,0,0,0,0,5.000
32314,-1040,918,8328,-522.314,664.657,8047.286,969.803,512.585,1330.941,-31.000,175.429,-159.717,13.137,-119.047,-99.440,0,0,0,0,0,5.000
32414,-122,420,9636,-518.514,660.800,8080.729,970.842,513.395,1340.992,38.000,-38.572,334.429,10.395,8.099,100.505,0,0,0,0,0,5.000
32514,-1383,576,8109,-529.457,654.457,8104.671,976.193,511.657,1326.240,-109.429,-63.428,239.429,53.505,-17.372,-147.522,0,0,0,0,0,5.000
32614,-127,747,7482,-517.714,652.929,8118.743,976.019,511.219,1314.279,117.429,-15.286,140.713,-1.733,-4.388,-119.606,0,0,0,0,0,5.000
32714,-862,629,6898,-528.629,655.457,8125.386,975.536,510.656,1306.896,-109.143,25.286,66.431,-4.830,-5.627,-73.827,0,0,0,0,0,5.000
32814,-440,442,6440,-536.357,645.500,8114.929,972.656,507.918,1317.370,-77.285,-99.572,-104.570,-28.799,-27.378,104.731,0,0,0,0,0,5.000
32914,-501,336,7711,-539.157,623.571,8088.671,972.268,487.251,1306.799,-28.000,-219.286,-262.573,-3.880,-206.671,-105.702,0,0,0,0,0,5.000
33014,-629,1007,8461,-564.457,616.529,8055.657,951.002,478.007,1267.184,-253.000,-70.428,-330.142,-212.661,-92.437,-396.157,0,0,0,0,0,5.000
33114,1125,735,7481,-570.700,611.486,8021.743,938.373,474.859,1250.228,-62.429,-50.428,-339.146,-126.290,-31.489,-169.557,0,0,0,0,0,5.000
33214,-1049,551,9887,-578.643,623.643,8052.014,940.033,462.089,1269.227,-79.429,121.572,302.715,16.602,-127.693,189.988,0,0,0,0,0,5.000
33314,-280,242,10001,-568.057,602.143,8097.300,939.164,443.979,1281.348,105.858,-215.000,452.856,-8.690,-181.102,121.210,0,0,0,0,0,5.000
33414,1243,487,8494,-539.043,600.271,8107.128,962.992,444.184,1281.714,290.143,-18.715,98.286,238.272,2.052,3.667,0,0,0,0,0,5.000
33514,-515,177,9539,-556.014,593.557,8118.729,951.886,446.971,1290.913,-169.714,-67.143,116.001,-111.058,27.864,91.990,0,0,0,0,0,5.000
33614,-10,-446,9535,-575.143,571.043,8140.786,926.940,458.915,1301.688,-191.286,-225.143,220.571,-249.455,119.445,107.748,0,0,0,0,0,5.000
33714,-760,231,7777,-534.557,554.900,8110.500,852.797,450.644,1285.031,405.858,-161.428,-302.856,-741.436,-82.716,-166.571,0,0,0,0,0,5.000
33814,-214,62,8044,-568.000,538.900,8076.314,791.463,447.969,1254.144,-334.429,-160.000,-341.855,-613.341,-26.743,-308.873,0,0,0,0,0,5.000
33914,-614,899,8553,-543.371,536.629,8054.300,762.287,445.729,1231.860,246.286,-22.714,-220.146,-291.757,-22.404,-222.834,0,0,0,0,0,5.000
34014,-479,643,7076,-546.243,533.286,8005.372,761.660,444.038,1201.349,-28.715,-33.429,-489.282,-6.268,-16.909,-305.115,0,0,0,0,0,5.000
34114,-394,393,7757,-536.229,532.429,7991.171,758.983,444.250,1198.322,100.143,-8.571,-142.002,-26.771,2.119,-30.265,0,0,0,0,0,5.000
34214,-955,259,7189,-526.343,535.486,8000.571,748.891,441.614,1189.379,98.857,30.571,93.999,-100.926,-26.362,-89.436,0,0,0,0,0,5.000
34314,1402,862,7624,-480.000,539.229,8019.429,766.213,443.252,1172.677,463.428,37.429,188.574,173.227,16.381,-167.013,0,0,0,0,0,5.000
34414,-2150,1269,7803,-514.871,546.971,8039.757,785.631,451.128,1156.301,-348.714,77.429,203.286,194.179,78.763,-163.762,0,0,0,0,0,5.000
34514,645,-101,8656,-482.386,540.629,8060.043,785.905,457.034,1154.477,324.857,-63.428,202.856,2.741,59.060,-18.242,0,0,0,0,0,5.000
34614,-1799,423,8189,-493.314,541.786,8063.614,798.714,456.632,1154.484,-109.286,11.571,35.713,128.091,-4.020,0.067,0,0,0,0,0,5.000
34714,12,917,8986,-485.457,547.943,8056.229,800.938,458.739,1146.881,78.571,61.572,-73.857,22.239,21.072,-76.031,0,0,0,0,0,5.000
34814,431,405,9172,-468.914,558.014,8053.600,807.709,447.617,1144.106,165.429,100.714,-26.284,67.704,-111.226,-27.745,0,0,0,0,0,5.000
34914,-697,82,7751,-464.057,553.157,8055.300,805.297,450.899,1143.567,48.571,-48.571,16.997,-24.119,32.822,-5.396,0,0,0,0,0,5.000
35014,-328,1396,6649,-471.257,569.729,8047.929,801.787,460.159,1150.921,-72.000,165.714,-73.711,-35.096,92.604,73.546,0,0,0,0,0,5.000
35114,-281,-467,8818,-467.000,554.971,8075.957,801.995,476.322,1145.430,42.571,-147.571,280.283,2.077,161.630,-54.912,0,0,0,0,0,5.000
35214,-376,-597,6542,-465.343,528.286,8062.000,802.061,487.652,1158.015,16.571,-266.857,-139.570,0.665,113.295,125.847,0,0,0,0,0,5.000
35314,238,1088,6721,-442.514,538.200,8055.771,799.008,491.857,1164.023,228.286,99.143,-62.285,-30.533,42.057,60.081,0,0,0,0,0,5.000
35414,1320,953,6836,-435.057,550.757,8028.414,812.867,491.066,1169.850,74.572,125.571,-273.574,138.586,-7.915,58.278,0,0,0,0,0,5.000
35514,-1074,913,8147,-429.271,553.014,8026.743,806.835,492.361,1169.596,57.857,22.571,-16.714,-60.319,12.950,-2.542,0,0,0,0,0,5.000
35614,-356,614,7414,-436.186,564.057,7982.514,804.099,484.880,1132.815,-69.143,110.428,-442.285,-27.360,-74.815,-367.815,0,0,0,0,0,5.000
35714,77,488,7948,-434.029,558.314,7965.757,805.269,483.363,1124.495,21.571,-57.429,-167.568,11.703,-15.162,-83.198,0,0,0,0,0,5.000
35814,-255,771,7743,-435.314,559.286,7949.614,804.910,483.721,1119.455,-12.857,9.714,-161.431,-3.588,3.581,-50.403,0,0,0,0,0,5.000
35914,-4,540,7778,-437.886,555.171,7953.143,803.239,482.642,1118.519,-25.714,-41.143,35.288,-16.713,-10.795,-9.362,0,0,0,0,0,5.000
36014,38,804,7759,-419.757,557.014,7971.086,799.446,483.342,1105.106,181.286,18.428,179.429,-37.934,6.998,-134.128,0,0,0,0,0,5.000
36114,-81,295,8486,-420.471,554.571,7987.557,799.120,484.227,1104.065,-7.143,-24.429,164.712,-3.254,8.851,-10.411,0,0,0,0,0,5.000
36214,-1789,748,8173,-432.171,549.743,7993.071,812.956,480.575,1104.013,-117.000,-48.286,55.142,138.359,-36.518,-0.516,0,0,0,0,0,5.000
36314,1601,-572,10120,-405.400,529.214,8002.786,847.864,497.078,1119.584,267.714,-205.286,97.144,349.077,165.033,155.708,0,0,0,0,0,5.000
36414,-2274,733,8680,-442.657,524.771,7994.543,871.525,493.837,1112.421,-372.571,-44.429,-82.427,236.611,-32.416,-71.632,0,0,0,0,0,5.000
36514,-1096,742,7824,-441.643,526.171,7984.200,870.722,494.311,1110.591,10.143,14.000,-103.428,-8.026,4.747,-18.297,0,0,0,0,0,5.000
36614,40,993,8212,-442.200,532.200,7988.114,870.401,497.385,1110.904,-5.572,60.286,39.141,-3.209,30.737,3.130,0,0,0,0,0,5.000
36714,-129,188,8143,-435.643,528.657,7995.429,871.007,498.939,1110.214,65.572,-35.428,73.145,6.057,15.535,-6.899,0,0,0,0,0,5.000
36814,-878,1635,4127,-436.900,543.457,7939.300,871.581,515.883,1201.313,-12.571,148.000,-561.289,5.739,169.447,910.996,0,0,0,0,0,5.000
36914,258,634,6848,-439.200,541.229,7927.114,869.529,515.150,1207.977,-23.000,-22.286,-121.855,-20.516,-7.334,66.633,0,0,0,0,0,5.000
37014,-1482,763,7818,-449.529,546.129,7916.186,877.524,515.605,1205.451,-103.286,49.000,-109.287,79.946,4.547,-25.254,0,0,0,0,0,5.000
37114,-950,30,7850,-459.157,538.100,7909.043,879.263,519.191,1204.341,-96.286,-80.286,-71.426,17.391,35.862,-11.108,0,0,0,0,0,5.000
37214,757,61,8472,-432.986,534.257,7906.614,887.767,521.706,1203.031,261.714,-38.428,-24.287,85.037,25.156,-13.097,0,0,0,0,0,5.000
37314,-1152,643,7645,-438.257,535.586,7881.372,890.919,521.863,1189.642,-52.714,13.286,-252.427,31.525,1.568,-133.884,0,0,0,0,0,5.000
37414,305,436,7991,-430.129,527.757,7865.814,895.058,519.181,1180.955,81.286,-78.286,-155.571,41.390,-26.821,-86.876,0,0,0,0,0,5.000
37514,-242,218,8601,-411.829,519.171,7866.171,885.572,519.263,1181.173,183.000,-85.857,3.569,-94.863,0.822,2.186,0,0,0,0,0,5.000
37614,-587,383,7679,-422.743,514.943,7858.786,882.952,519.149,1180.704,-109.143,-42.286,-73.857,-26.203,-1.136,-4.694,0,0,0,0,0,5.000
37714,242,265,7198,-388.757,508.371,7853.372,861.847,519.360,1182.851,339.857,-65.714,-54.141,-211.047,2.109,21.470,0,0,0,0,0,5.000
37814,-662,483,7710,-393.029,508.671,7853.800,862.449,519.340,1182.793,-42.714,3.000,4.282,6.024,-0.208,-0.576,0,0,0,0,0,5.000
37914,-1076,317,8436,-400.414,495.586,7870.529,866.045,512.418,1182.629,-73.857,-130.857,167.290,35.959,-69.217,-1.649,0,0,0,0,0,5.000
38014,409,662,8564,-399.529,495.843,7883.700,866.841,512.497,1185.142,8.857,2.571,131.714,7.954,0.790,25.133,0,0,0,0,0,5.000
38114,-1809,710,8437,-418.514,491.914,7888.000,882.802,509.779,1186.594,-189.857,-39.286,42.998,159.615,-27.179,14.523,0,0,0,0,0,5.000
38214,-182,792,7622,-406.186,499.657,7867.943,879.989,510.162,1179.031,123.286,77.429,-200.571,-28.136,3.828,-75.631,0,0,0,0,0,5.000
38314,-886,473,7687,-424.100,517.486,7848.872,876.804,486.566,1170.979,-179.143,178.286,-190.713,-31.845,-235.957,-80.521,0,0,0,0,0,5.000
38414,-8,813,6976,-413.243,512.143,7849.643,877.184,481.209,1170.386,108.571,-53.428,7.715,3.798,-53.572,-5.929,0,0,0,0,0,5.000
38514,282,-104,7212,-394.157,503.857,7854.814,877.569,486.722,1166.751,190.857,-82.857,51.714,3.849,55.127,-36.345,0,0,0,0,0,5.000
38614,-873,24,7236,-401.657,491.500,7869.671,879.384,487.766,1152.063,-75.000,-123.571,148.569,18.152,10.442,-146.884,0,0,0,0,0,5.000
38714,487,1023,7786,-394.300,487.771,7929.057,884.618,482.665,1032.917,73.571,-37.286,593.857,52.339,-51.011,-1191.458,0,0,0,0,0,5.000
38814,-403,287,8722,-401.200,511.943,7904.286,882.773,426.353,992.001,-69.000,241.714,-247.715,-18.446,-563.116,-409.161,0,0,0,0,0,5.000
38914,-140,1178,8562,-349.786,517.229,7955.000,786.425,432.244,931.756,514.143,52.857,507.144,-963.484,58.904,-602.452,0,0,0,0,0,5.000
39014,949,-160,9427,-328.614,501.629,7972.500,801.021,436.676,947.600,211.714,-156.000,175.000,145.959,44.320,158.442,0,0,0,0,0,5.000
39114,-2405,1043,8232,-354.629,513.943,7983.929,837.626,439.604,945.835,-260.143,123.143,114.287,366.048,29.289,-17.653,0,0,0,0,0,5.000
39214,-64,-419,7131,-357.157,499.786,7979.157,836.477,453.252,949.277,-25.286,-141.572,-47.715,-11.490,136.478,34.420,0,0,0,0,0,5.000
39314,341,328,6713,-337.429,491.357,7956.086,836.425,450.876,960.083,197.286,-84.286,-230.713,-0.519,-23.758,108.055,0,0,0,0,0,5.000
39414,171,-72,7148,-333.243,484.329,7920.543,838.223,455.743,943.137,41.857,-70.286,-355.430,17.987,48.662,-169.454,0,0,0,0,0,5.000
39514,351,109,7851,-308.471,477.657,7916.857,832.437,457.765,942.898,247.714,-66.714,-36.860,-57.868,20.228,-2.395,0,0,0,0,0,5.000
39614,-1976,-314,8717,-334.886,462.500,7934.500,855.281,466.086,946.145,-264.143,-151.571,176.431,228.447,83.205,32.469,0,0,0,0,0,5.000
39714,-2066,847,8565,-352.086,465.614,7958.314,877.526,467.913,940.720,-172.000,31.143,238.145,222.445,18.270,-54.249,0,0,0,0,0,5.000
39814,152,593,7309,-343.629,467.771,7970.729,879.488,468.147,926.223,84.572,21.571,124.141,19.625,2.342,-144.963,0,0,0,0,0,5.000
39914,-2177,1000,7348,-367.571,477.257,7965.543,905.865,472.091,928.676,-239.429,94.857,-51.855,263.763,39.443,24.526,0,0,0,0,0,5.000
40014,1972,227,8127,-330.414,466.114,7960.771,946.799,468.649,926.975,371.572,-111.429,-47.715,409.341,-34.424,-17.015,0,0,0,0,0,5.000
40114,-2823,217,8306,-386.814,458.714,7972.557,975.573,468.434,926.044,-564.000,-74.000,117.856,287.745,-2.146,-9.305,0,0,0,0,0,5.000
40214,2228,883,8210,-340.000,463.457,7948.600,1020.276,471.018,897.458,468.143,47.429,-239.570,447.023,25.840,-285.863,0,0,0,0,0,5.000
40314,-892,169,6425,-348.743,462.414,7897.514,1022.344,471.588,880.799,-87.429,-10.429,-510.859,20.685,5.696,-166.591,0,0,0,0,0,5.000
40414,253,556,7361,-362.886,463.400,7881.329,1006.958,471.710,880.099,-141.429,9.857,-161.855,-153.856,1.225,-6.999,0,0,0,0,0,5.000
40514,-57,551,8354,-356.343,468.743,7864.400,1007.437,470.553,859.199,65.428,53.429,-169.287,4.781,-11.575,-208.994,0,0,0,0,0,5.000
40614,-474,682,8580,-362.971,484.857,7850.757,1006.662,458.101,839.930,-66.286,161.143,-136.426,-7.744,-124.520,-192.690,0,0,0,0,0,5.000
40714,-743,177,8591,-362.729,484.086,7862.386,1006.568,458.573,844.451,2.429,-7.714,116.284,-0.938,4.721,45.209,0,0,0,0,0,5.000
40814,151,422,7582,-357.514,489.229,7855.786,1008.269,455.821,844.812,52.143,51.429,-66.001,17.009,-27.521,3.602,0,0,0,0,0,5.000
40914,338,472,7971,-343.914,483.129,7847.471,1011.135,453.146,840.763,136.000,-61.000,-83.145,28.652,-26.753,-40.485,0,0,0,0,0,5.000
41014,-100,168,8677,-338.500,476.343,7870.343,1011.411,454.256,841.241,54.143,-67.857,228.716,2.769,11.103,4.783,0,0,0,0,0,5.000
41114,-116,-265,9142,-334.529,466.943,7890.128,1011.731,462.615,854.526,39.714,-94.000,197.856,3.199,83.585,132.842,0,0,0,0,0,5.000
41214,-172,480,8803,-323.343,470.100,7913.186,1009.135,461.938,857.067,111.857,31.571,230.571,-25.967,-6.763,25.417,0,0,0,0,0,5.000
41314,-937,576,8173,-356.757,466.014,7921.029,989.995,459.713,856.897,-334.143,-40.857,78.433,-191.396,-22.249,-1.703,0,0,0,0,0,5.000
41414,152,1818,12589,-323.871,473.857,7989.400,967.867,477.678,1020.139,328.857,78.429,683.711,-221.277,179.644,1632.422,0,0,0,0,1,5.000
41514,-1678,-2228,9898,-357.057,443.471,8007.143,973.885,571.680,1042.142,-331.857,-303.857,177.432,60.173,940.023,220.030,0,1,0,0,0,5.000
41614,-406,-435,7678,-337.157,431.214,7999.843,958.325,581.108,1042.632,199.000,-122.571,-73.003,-155.598,94.277,4.902,0,0,0,0,0,5.000
41714,374,84,7243,-331.986,419.314,7974.943,961.168,579.565,1039.593,51.714,-119.000,-248.999,28.428,-15.427,-30.399,0,0,0,0,0,5.000
41814,-320,403,6703,-342.714,419.286,7939.671,956.773,579.566,1040.264,-107.286,-0.286,-352.715,-43.951,0.008,6.718,0,0,0,0,0,5.000
41914,-69,-284,6802,-333.743,414.057,7926.114,956.353,584.217,1048.784,89.714,-52.286,-135.571,-4.199,46.516,85.197,0,0,0,0,0,5.000
42014,-901,236,8051,-341.929,397.486,7946.143,958.718,572.463,1037.530,-81.857,-165.714,200.288,23.651,-117.545,-112.538,0,0,0,0,0,5.000
42114,-457,427,9173,-344.443,410.257,7951.214,958.785,562.927,1042.635,-25.143,127.714,50.713,0.676,-95.358,51.044,0,0,0,0,0,5.000
42214,-68,326,7304,-340.043,423.443,7962.100,959.337,549.837,1031.786,44.000,131.857,108.857,5.518,-130.901,-108.485,0,0,0,0,0,5.000
42314,10,292,6490,-343.300,412.071,7958.800,957.755,544.177,1036.110,-32.571,-113.714,-33.003,-15.823,-56.595,43.245,0,0,0,0,0,5.000
42414,-1107,967,7431,-377.971,412.271,7967.300,940.692,544.379,1029.283,-346.714,2.000,85.000,-170.627,2.014,-68.279,0,0,0,0,0,5.000
42514,-602,693,6505,-371.229,409.129,7943.843,937.365,542.109,1043.532,67.429,-31.429,-234.570,-33.275,-22.695,142.491,0,0,0,0,0,5.000
42614,-2212,-51,7339,-397.743,399.629,7942.771,962.472,544.258,1044.114,-265.143,-95.000,-10.713,251.075,21.490,5.818,0,0,0,0,0,5.000
42714,-2288,442,9427,-431.529,398.971,7963.900,986.425,544.179,1058.866,-337.857,-6.571,211.284,239.534,-0.794,147.522,0,0,0,0,0,5.000
42814,-326,-469,8481,-432.543,381.257,7974.443,986.280,551.908,1060.287,-10.143,-177.143,105.430,-1.455,77.289,14.213,0,0,0,0,0,5.000
42914,-869,859,4218,-444.900,385.814,7923.586,986.252,554.510,1150.067,-123.571,45.572,-508.569,-0.278,26.028,897.800,0,0,0,0,0,5.000
43014,531,-8,6392,-437.857,374.214,7904.057,991.422,554.134,1164.215,70.428,-116.000,-195.288,51.700,-3.764,141.482,0,0,0,0,0,5.000
43114,-1081,1043,6021,-452.143,384.900,7868.843,993.380,559.688,1183.205,-142.857,106.857,-352.144,19.575,55.536,189.900,0,0,0,0,0,5.000
43214,668,388,6611,-417.043,379.757,7846.529,988.921,557.979,1191.955,351.000,-51.429,-223.140,-44.587,-17.086,87.501,0,0,0,0,0,5.000
43314,-732,-409,7573,-450.371,382.086,7810.143,959.214,554.331,1160.459,-333.286,23.286,-363.857,-297.064,-36.486,-314.966,0,0,0,0,0,5.000
43414,1906,-415,8553,-390.657,365.686,7808.329,973.827,560.652,1159.196,597.143,-164.000,-18.145,146.125,63.213,-12.629,0,0,0,0,0,5.000
43514,-1041,529,8766,-389.871,362.643,7821.786,973.279,559.177,1164.754,7.857,-30.428,134.570,-5.474,-14.746,55.585,0,0,0,0,0,5.000
43614,-491,-325,8833,-397.457,343.814,7830.657,971.968,559.824,1170.045,-75.857,-188.286,88.716,-13.114,6.472,52.911,0,0,0,0,0,5.000
43714,1023,-48,7935,-381.000,340.443,7827.686,986.025,561.461,1169.512,164.572,-33.714,-29.717,140.569,16.365,-5.330,0,0,0,0,0,5.000
43814,-829,41,8004,-380.300,317.671,7883.071,985.689,540.425,1081.431,7.000,-227.715,553.857,-3.356,-210.355,-880.819,0,0,0,0,0,5.000
43914,-427,-477,10097,-390.086,301.800,7929.486,982.700,547.174,1105.465,-97.857,-158.714,464.146,-29.898,67.488,240.348,0,0,0,0,0,5.000
44014,-1938,-2218,8111,-396.600,259.214,7933.671,991.389,620.688,1105.590,-65.143,-425.857,41.855,86.896,735.134,1.246,0,0,0,0,0,5.000
44114,-667,1964,2088,-392.557,286.843,7851.357,989.700,652.118,1305.229,40.429,276.286,-823.145,-16.893,314.302,1996.392,0,0,0,0,0,5.000
44214,5576,-99,7950,-323.714,284.557,7843.900,1210.288,653.185,1303.151,688.428,-22.857,-74.570,2205.884,10.671,-20.776,0,0,1,0,0,5.000
44314,1087,659,8810,-291.729,284.786,7860.543,1217.540,653.313,1307.935,319.857,2.286,166.431,72.521,1.282,47.838,0,0,0,0,0,5.000
44414,-1212,115,7510,-313.400,280.200,7853.671,1220.224,653.362,1308.495,-216.714,-45.857,-68.716,26.833,0.491,5.602,0,0,0,0,0,5.000
44514,-1350,-620,7996,-329.229,268.229,7845.029,1226.366,662.012,1305.525,-158.286,-119.714,-86.426,61.422,86.500,-29.702,0,0,0,0,0,5.000
44614,2223,-239,8511,-289.086,259.343,7856.914,1262.722,664.581,1307.745,401.429,-88.857,118.853,363.564,25.692,22.200,0,0,0,0,0,5.000
44714,-1452,296,9305,-313.286,259.786,7887.014,1268.532,664.595,1316.452,-242.000,4.428,301.001,58.092,0.140,87.065,0,0,0,0,0,5.000
44814,41,14,7128,-303.243,253.086,7878.700,1268.514,664.675,1319.378,100.428,-67.000,-83.140,-0.177,0.800,29.263,0,0,0,0,0,5.000
44914,-845,195,7548,-299.943,251.343,7866.014,1266.799,664.665,1318.227,33.000,-17.429,-126.860,-17.152,-0.098,-11.508,0,0,0,0,0,5.000
45014,217,338,10097,-302.686,246.714,7887.914,1265.468,662.915,1342.158,-27.428,-46.286,218.999,-13.308,-17.501,239.307,0,0,0,0,0,5.000
45114,1134,-311,8625,-260.643,232.129,7890.600,1263.611,663.793,1343.442,420.428,-145.857,26.860,-18.564,8.778,12.836,0,0,0,0,0,5.000
45214,-1568,140,9178,-280.443,222.814,7912.829,1273.048,660.438,1351.661,-198.000,-93.143,222.285,94.363,-33.555,82.195,0,0,0,0,0,5.000
45314,-1827,545,9809,-293.886,223.843,7943.143,1284.290,660.882,1369.928,-134.428,10.286,303.145,112.422,4.448,182.673,0,0,0,0,0,5.000
45414,-1127,-28,8612,-309.871,211.829,7966.514,1287.592,657.700,1367.182,-159.857,-120.143,233.711,33.019,-31.829,-27.466,0,0,0,0,0,5.000
45514,-1819,-171,8043,-339.886,210.871,7978.386,1297.891,658.207,1364.183,-300.143,-9.571,118.716,102.997,5.075,-29.985,0,0,0,0,0,5.000
45614,-1792,-123,7410,-353.014,208.771,7980.872,1307.828,659.034,1362.986,-131.286,-21.000,24.858,99.362,8.269,-11.969,0,0,0,0,0,5.000
45714,-673,270,6806,-369.586,198.014,7966.872,1304.424,651.761,1369.931,-165.714,-107.571,-140.000,-34.038,-72.728,69.451,0,0,0,0,0,5.000
45814,1840,-891,8108,-337.543,181.186,7958.100,1330.498,664.333,1367.031,320.429,-168.286,-87.715,260.743,125.719,-29.005,0,0,0,0,0,5.000
45914,-1356,-904,8011,-354.914,151.443,7950.229,1335.733,665.644,1365.116,-173.714,-297.429,-78.716,52.352,13.112,-19.149,0,0,0,0,0,5.000
46014,-2336,1327,9056,-401.843,172.686,7944.929,1346.759,678.960,1360.083,-469.286,212.429,-52.998,110.259,133.162,-50.328,0,0,0,0,0,5.000
46114,-146,-553,7861,-369.571,149.886,7939.628,1325.266,676.143,1359.677,322.714,-228.000,-53.003,-214.930,-28.170,-4.061,0,0,0,0,0,5.000
46214,-2276,-322,7121,-401.171,151.271,7939.486,1343.845,675.075,1359.762,-316.000,13.857,-1.426,185.785,-10.688,0.853,0,0,0,0,0,5.000
46314,-249,-326,7984,-409.600,141.929,7957.643,1341.011,677.087,1351.726,-84.286,-93.428,181.572,-28.339,20.121,-80.365,0,0,0,0,0,5.000
46414,-895,-559,8178,-424.829,134.971,7972.357,1340.384,681.735,1348.434,-152.286,-69.571,147.139,-6.271,46.484,-32.914,0,0,0,0,0,5.000
46514,-860,-66,8655,-442.129,132.471,7983.843,1338.072,682.146,1350.774,-173.000,-25.000,114.858,-23.121,4.114,23.395,0,0,0,0,0,5.000
46614,1052,-122,7755,-398.871,135.214,7970.100,1336.729,680.730,1348.136,432.571,27.428,-137.427,-13.423,-14.162,-26.378,0,0,0,0,0,5.000
46714,-1858,675,7838,-395.900,132.757,7959.714,1333.247,678.463,1346.312,29.714,-24.571,-103.857,-34.827,-22.670,-18.240,0,0,0,0,0,5.000
46814,-181,60,8610,-400.657,125.143,7978.300,1331.877,676.242,1346.181,-47.571,-76.143,185.854,-13.700,-22.208,-1.312,0,0,0,0,0,5.000
46914,-1332,-292,8691,-388.586,106.686,7997.486,1319.494,669.713,1346.631,120.714,-184.571,191.860,-123.828,-65.297,4.503,0,0,0,0,0,5.000
47014,-936,-63,9161,-430.129,102.543,8012.257,1289.967,669.853,1353.624,-415.428,-41.429,147.715,-295.272,1.398,69.926,0,0,0,0,0,5.000
47114,804,-609,10145,-378.314,90.743,8038.529,1265.421,674.988,1376.719,518.143,-118.000,262.715,-245.458,51.354,230.951,0,0,0,0,0,5.000
47214,618,-792,9410,-401.314,66.814,8055.671,1232.031,676.167,1386.186,-230.000,-239.286,171.426,-333.898,11.787,94.668,0,0,0,0,0,5.000
47314,-571,-140,9031,-396.729,62.400,8092.900,1230.793,676.494,1376.854,45.857,-44.143,372.285,-12.382,3.270,-93.315,0,0,0,0,0,5.000
47414,-230,19,8433,-403.629,54.729,8108.214,1228.483,673.893,1374.588,-69.000,-76.714,153.145,-23.102,-26.012,-22.657,0,0,0,0,0,5.000
47514,-497,-481,9238,-409.914,39.986,8120.843,1227.819,674.163,1380.835,-62.857,-147.429,126.284,-6.642,2.703,62.465,0,0,0,0,0,5.000
47614,-255,-45,8412,-406.786,29.600,8118.443,1227.930,669.778,1380.181,31.286,-103.857,-23.999,1.118,-43.848,-6.542,0,0,0,0,0,5.000
47714,-1479,168,8700,-417.300,29.471,8120.000,1233.901,669.751,1380.774,-105.143,-1.286,15.571,59.705,-0.275,5.933,0,0,0,0,0,5.000
47814,-574,-111,8558,-427.657,21.857,8133.943,1232.129,668.273,1380.199,-103.571,-76.143,139.429,-17.722,-14.777,-5.751,0,0,0,0,0,5.000
47914,-1149,-209,7745,-448.900,12.129,8130.714,1231.563,666.604,1380.840,-212.429,-97.286,-32.285,-5.653,-16.691,6.414,0,0,0,0,0,5.000
48014,-865,-366,8033,-459.829,4.500,8121.514,1231.813,667.831,1379.315,-109.286,-76.286,-92.002,2.495,12.268,-15.256,0,0,0,0,0,5.000
48114,-709,23,7969,-468.300,8.614,8104.757,1231.458,667.045,1373.930,-84.714,41.143,-167.568,-3.545,-7.861,-53.848,0,0,0,0,0,5.000
48214,-491,-98,8012,-472.857,0.357,8093.457,1230.944,664.732,1371.391,-45.572,-82.571,-113.003,-5.148,-23.127,-25.389,0,0,0,0,0,5.000
48314,-233,74,8210,-462.800,-6.814,8093.986,1229.986,661.181,1371.429,100.572,-71.714,5.288,-9.576,-35.507,0.378,0,0,0,0,0,5.000
48414,226,-68,8625,-461.743,-33.757,8037.357,1230.545,623.633,1262.138,10.571,-269.429,-566.289,5.594,-375.486,-1092.903,0,0,0,0,0,5.000
48514,274,-328,7977,-433.857,-6.614,8009.914,1224.771,566.247,1242.109,278.857,271.429,-274.429,-57.740,-573.851,-200.293,0,0,0,0,0,5.000
48614,-1282,-388,8232,-446.371,-5.943,8017.829,1228.891,565.767,1241.734,-125.143,6.714,79.146,41.200,-4.807,-3.754,0,0,0,0,0,5.000
48714,-788,-307,7713,-462.971,-11.529,8024.543,1225.541,566.780,1238.794,-166.000,-55.857,67.144,-33.502,10.136,-29.402,0,0,0,0,0,5.000
48814,-318,-820,7925,-462.943,-29.000,8042.000,1225.545,572.553,1228.615,0.286,-174.714,174.570,0.034,57.729,-101.783,0,0,0,0,0,5.000
48914,-609,784,8571,-470.657,-13.743,8067.271,1224.740,579.740,1221.020,-77.143,152.571,252.715,-8.048,71.865,-75.952,0,0,0,0,0,5.000
49014,-1125,-78,7850,-473.857,-18.229,8064.400,1226.152,579.004,1221.291,-32.000,-44.857,-28.716,14.120,-7.355,2.709,0,0,0,0,0,5.000
49114,-1340,-127,7811,-486.471,-26.143,8044.943,1230.448,576.646,1214.303,-126.143,-79.143,-194.570,42.964,-23.583,-69.874,0,0,0,0,0,5.000
49214,-1021,13,7649,-500.086,-30.614,8049.872,1231.015,575.110,1211.984,-136.143,-44.714,49.287,5.665,-15.364,-23.191,0,0,0,0,0,5.000
49314,-659,-209,8005,-509.643,-37.771,8071.514,1229.614,574.167,1197.375,-95.571,-71.571,216.426,-14.010,-9.427,-146.096,0,0,0,0,0,5.000
49414,-601,157,7815,-502.414,-49.343,8077.000,1227.566,561.830,1195.306,72.286,-115.714,54.858,-20.475,-123.366,-20.692,0,0,0,0,0,5.000
49514,-294,-31,8632,-498.014,-59.686,8107.386,1227.753,554.688,1181.918,44.000,-103.429,303.857,1.873,-71.424,-133.876,0,0,0,0,0,5.000
49614,-783,-38,8481,-477.600,-59.500,8123.700,1210.848,554.693,1179.077,204.143,1.857,163.145,-169.050,0.049,-28.406,0,0,0,0,0,5.000
49714,-1109,-101,7733,-460.757,-67.257,8099.500,1193.626,551.413,1169.424,168.429,-77.571,-242.002,-172.223,-32.801,-96.530,0,0,0,0,0,5.000
49814,-540,-168,7465,-463.814,-62.957,8084.986,1193.551,549.433,1170.903,-30.572,43.000,-145.142,-0.751,-19.797,14.788,0,0,0,0,0,5.000
49914,-105,77,7848,-452.900,-74.129,8136.843,1193.289,538.413,1074.944,109.143,-111.714,518.569,-2.618,-110.198,-959.590,0,0,0,0,0,5.000
50014,180,-46,7776,-457.914,-74.671,8156.614,1189.877,538.365,1055.216,-50.143,-5.429,197.715,-34.126,-0.479,-197.279,0,0,0,0,0,5.000
50114,-816,-243,7796,-454.129,-93.043,8181.971,1188.309,521.593,1024.471,37.857,-183.714,253.569,-15.677,-167.725,-307.450,0,0,0,0,0,5.000
50214,-435,186,8382,-469.886,-95.929,8207.271,1180.613,519.478,1007.083,-157.571,-28.857,253.003,-76.958,-21.149,-173.884,0,0,0,0,0,5.000
50314,594,-162,9112,-450.943,-92.400,8229.257,1186.876,518.177,1009.792,189.428,35.286,219.854,62.634,-13.012,27.087,0,0,0,0,0,5.000
50414,-1758,-194,8509,-503.286,-89.243,8228.629,1162.318,516.873,1009.604,-523.428,31.571,-6.279,-245.590,-13.036,-1.879,0,0,0,0,0,5.000
50514,610,-127,8797,-479.700,-98.614,8229.071,1167.905,511.498,1009.846,235.857,-93.714,4.424,55.872,-53.753,2.424,0,0,0,0,0,5.000
50614,-1829,586,9431,-498.814,-85.600,8237.614,1178.831,517.130,1017.420,-191.143,130.143,85.430,109.263,56.329,75.739,0,0,0,0,0,5.000
50714,223,243,7349,-510.243,-81.443,8229.243,1167.849,518.584,1022.275,-114.286,41.571,-83.711,-109.822,14.532,48.548,0,0,0,0,0,5.000
50814,-677,-588,7298,-508.071,-90.429,8219.157,1167.395,521.824,1027.914,21.714,-89.857,-100.859,-4.539,32.399,56.396,0,0,0,0,0,5.000
50914,660,-417,7210,-492.543,-89.571,8177.914,1175.571,521.237,1009.495,155.286,8.571,-412.432,81.760,-5.867,-184.197,0,0,0,0,0,5.000
51014,-3081,-1262,8410,-508.871,-75.914,8182.186,1203.150,475.837,1009.835,-163.286,136.571,42.715,275.786,-453.996,3.405,0,0,0,0,0,5.000
51114,1348,-359,9621,-480.086,-109.100,8289.800,1222.964,408.678,712.181,287.857,-331.857,1076.143,198.142,-671.587,-2976.543,0,0,0,0,0,5.000
51214,-1031,-128,8006,-574.471,-109.514,8290.600,983.423,408.683,711.830,-943.857,-4.143,7.998,-2395.403,0.042,-3.508,0,0,0,0,0,5.000
51314,143,188,8995,-587.957,-116.243,8293.243,966.881,399.754,714.093,-134.857,-67.286,26.436,-165.427,-89.284,22.634,0,0,0,0,0,5.000
51414,-848,-171,8937,-582.757,-120.329,8313.629,964.486,398.831,711.808,52.000,-40.857,203.857,-23.945,-9.238,-22.856,0,0,0,0,0,5.000
51514,-400,88,9601,-569.186,-110.214,8336.558,960.269,394.989,726.897,135.714,101.143,229.287,-42.167,-38.411,150.894,0,0,0,0,0,5.000
51614,-549,100,7888,-608.786,-105.371,8327.657,899.544,395.459,728.519,-396.000,48.429,-89.004,-607.255,4.692,16.219,0,0,0,0,0,5.000
51714,-551,-187,7869,-595.914,-112.271,8307.143,893.814,392.599,720.887,128.714,-69.000,-205.146,-57.296,-28.600,-76.318,0,0,0,0,0,5.000
51814,-1082,-150,7590,-611.957,-114.614,8313.743,892.316,392.327,712.123,-160.428,-23.429,66.006,-14.988,-2.713,-87.641,0,0,0,0,0,5.000
51914,-1866,-123,6831,-626.543,-119.157,8303.500,904.270,390.553,728.042,-145.857,-45.429,-102.432,119.547,-17.743,159.189,0,0,0,0,0,5.000
52014,-688,811,6678,-639.471,-112.400,8254.657,898.569,402.319,720.732,-129.286,67.571,-488.428,-57.013,117.656,-73.104,0,0,0,0,0,5.000
52114,813,-650,8614,-644.057,-117.243,8254.500,890.288,406.697,720.652,-45.857,-48.429,-1.572,-82.814,43.780,-0.797,0,0,0,0,0,5.000
52214,2051,-767,8394,-592.357,-130.200,8243.300,938.885,412.699,712.256,517.000,-129.571,-112.002,485.978,60.019,-83.961,0,0,0,0,0,5.000
52314,-5115,718,7151,-639.329,-127.729,8205.328,1072.253,417.228,698.492,-469.714,24.714,-379.717,1333.681,45.292,-137.640,0,0,0,1,0,5.000
52414,606,-967,9796,-614.571,-141.143,8222.243,1080.681,428.742,722.072,247.571,-134.143,169.150,84.276,115.140,235.805,0,0,0,0,0,5.000
52514,-1369,-1039,9823,-608.143,-153.543,8247.672,1074.820,441.780,746.250,64.285,-124.000,254.287,-58.611,130.381,241.776,0,0,0,0,0,5.000
52614,758,-279,7788,-571.714,-155.771,8253.071,1077.289,442.014,741.521,364.286,-22.286,53.994,24.689,2.337,-47.285,0,0,0,0,0,5.000
52714,-60,-378,6864,-562.957,-165.029,8253.900,1078.920,439.780,739.935,87.571,-92.571,8.291,16.313,-22.340,-15.866,0,0,0,0,0,5.000
52814,-292,104,8209,-593.414,-150.814,8255.343,1040.049,432.098,739.747,-304.572,142.143,14.424,-388.716,-76.813,-1.875,0,0,0,0,0,5.000
52914,-507,-385,7597,-581.286,-143.400,8249.429,1036.028,423.478,743.324,121.286,74.143,-59.141,-40.210,-86.206,35.762,0,0,0,0,0,5.000
53014,370,393,8368,-542.629,-156.743,8239.600,1020.196,390.357,737.116,386.571,-133.429,-98.291,-158.314,-331.203,-62.072,0,0,0,0,0,5.000
53114,-1118,-278,8380,-556.514,-152.814,8247.015,1021.318,387.725,735.880,-138.857,39.286,74.150,11.214,-26.328,-12.364,0,0,0,0,0,5.000
53214,-467,226,7494,-530.671,-144.986,8252.343,1000.149,389.757,729.026,258.428,78.286,53.281,-211.683,20.320,-68.542,0,0,0,0,0,5.000
53314,-4,423,6988,-527.171,-134.286,8238.114,1001.557,394.888,743.696,35.000,107.000,-142.285,14.073,51.311,146.703,0,0,0,0,0,5.000
53414,-817,-254,8110,-526.057,-129.929,8237.143,1001.190,391.848,743.818,11.143,43.571,-9.717,-3.666,-30.393,1.222,0,0,0,0,0,5.000
53514,-998,-255,8114,-528.029,-132.629,8229.414,1001.981,392.050,742.245,-19.714,-27.000,-77.285,7.911,2.013,-15.728,0,0,0,0,0,5.000
53614,-744,26,7505,-553.686,-130.514,8225.843,984.028,392.500,745.116,-256.572,21.143,-35.713,-179.536,4.504,28.701,0,0,0,0,0,5.000
53714,-588,370,8204,-535.543,-134.871,8231.071,971.439,385.158,743.658,181.429,-43.571,52.285,-125.881,-73.419,-14.572,0,0,0,0,0,5.000
53814,-480,-134,8102,-539.814,-137.643,8223.814,970.528,384.443,742.403,-42.714,-27.714,-72.568,-9.114,-7.149,-12.557,0,0,0,0,0,5.000
53914,98,-27,8323,-519.386,-133.857,8218.558,968.687,384.209,740.376,204.285,37.857,-52.568,-18.414,-2.339,-20.267,0,0,0,0,0,5.000
54014,-204,319,8193,-508.929,-128.400,8204.729,968.084,387.872,731.633,104.572,54.572,-138.291,-6.031,36.631,-87.434,0,0,0,0,0,5.000
54114,58,216,8485,-519.586,-116.614,8181.014,957.621,385.617,694.309,-106.571,117.857,-237.144,-104.624,-22.549,-373.233,0,0,0,0,0,5.000
54214,-593,-45,7572,-536.886,-105.943,8154.757,947.802,377.020,681.980,-173.000,106.714,-262.568,-98.190,-85.978,-123.289,0,0,0,0,0,5.000
54314,302,239,8394,-524.414,-100.529,8145.657,953.001,379.207,674.436,124.714,54.143,-91.001,51.984,21.870,-75.447,0,0,0,0,0,5.000
54414,444,-175,7542,-514.786,-103.300,8132.929,959.311,379.032,677.294,96.286,-27.714,-127.285,63.100,-1.748,28.588,0,0,0,0,0,5.000
54514,169,76,7950,-505.271,-95.343,8114.529,962.736,376.860,664.396,95.143,79.571,-183.999,34.257,-21.723,-128.986,0,0,0,0,0,5.000
54614,-635,-665,7602,-510.700,-104.200,8102.957,962.381,382.811,666.165,-54.286,-88.571,-115.718,-3.553,59.516,17.696,0,0,0,0,0,5.000
54714,-1035,122,7096,-504.357,-104.857,8080.043,957.429,382.383,672.788,63.429,-6.571,-229.141,-49.524,-4.286,66.230,0,0,0,0,0,5.000
54814,-815,-163,8003,-507.800,-105.600,8072.114,958.106,382.444,670.375,-34.428,-7.429,-79.287,6.774,0.617,-24.133,0,0,0,0,0,5.000
54914,-735,-155,8253,-501.886,-104.829,8079.372,955.404,382.289,669.544,59.143,7.714,72.573,-27.023,-1.550,-8.313,0,0,0,0,0,5.000
55014,-401,-139,8361,-495.257,-101.586,8084.057,954.470,381.021,670.350,66.286,32.429,46.855,-9.332,-12.684,8.063,0,0,0,0,0,5.000
55114,-622,337,8045,-494.014,-97.100,8085.143,954.248,384.295,670.224,12.429,44.857,10.859,-2.225,32.746,-1.257,0,0,0,0,0,5.000
55214,182,495,7847,-484.400,-88.629,8082.786,957.614,390.666,670.767,96.143,84.714,-23.574,33.663,63.701,5.430,0,0,0,0,0,5.000
55314,-276,487,8415,-485.014,-82.729,8085.714,957.467,396.157,671.763,-6.143,59.000,29.287,-1.475,54.916,9.959,0,0,0,0,0,5.000
55414,-204,726,8187,-491.157,-71.386,8079.457,954.259,407.618,668.744,-61.429,113.429,-62.573,-32.074,114.605,-30.192,0,0,0,0,0,5.000
55514,-829,107,8453,-506.914,-65.171,8086.257,950.594,406.973,670.086,-157.571,62.143,68.003,-36.652,-6.443,13.423,0,0,0,0,0,5.000
55614,-181,16,7571,-491.186,-59.400,8076.814,946.740,405.215,672.619,157.286,57.714,-94.429,-38.539,-17.582,25.323,0,0,0,0,0,5.000
55714,-655,239,7734,-489.286,-51.600,8077.114,946.276,405.629,672.461,19.000,78.000,2.998,-4.643,4.138,-1.577,0,0,0,0,0,5.000
55814,-1762,-2,7388,-509.914,-39.914,8069.443,957.984,394.966,677.199,-206.286,116.857,-76.714,117.082,-106.624,47.379,0,0,0,0,0,5.000
55914,1413,-193,7369,-481.029,-53.871,8052.271,984.673,382.676,679.499,288.857,-139.571,-171.714,266.893,-122.905,22.999,0,0,0,0,0,5.000
56014,446,511,7704,-458.586,-45.457,8050.186,987.639,388.484,680.340,224.428,84.143,-20.859,29.655,58.083,8.412,0,0,0,0,0,5.000
56114,31,388,8326,-439.000,-38.100,8057.543,983.551,391.733,680.498,195.857,73.571,73.574,-40.880,32.491,1.583,0,0,0,0,0,5.000
56214,-408,444,7583,-430.243,-31.943,8056.600,981.056,395.854,681.109,87.571,61.571,-9.429,-24.948,41.202,6.108,0,0,0,0,0,5.000
56314,-1141,41,7799,-437.129,-28.371,8053.657,984.323,395.368,681.770,-68.857,35.714,-29.429,32.675,-4.861,6.613,0,0,0,0,0,5.000
56414,-227,14,8177,-431.786,-30.414,8058.829,984.435,394.773,681.313,53.429,-20.429,51.714,1.110,-5.941,-4.571,0,0,0,0,0,5.000
56514,-466,365,8558,-434.243,-24.757,8057.771,984.302,397.552,680.480,-24.572,56.571,-10.571,-1.323,27.787,-8.333,0,0,0,0,0,5.000
56614,51,73,8108,-422.329,-23.171,8052.443,985.056,397.717,678.603,119.143,15.857,-53.286,7.535,1.654,-18.771,0,0,0,0,0,5.000
56714,-1074,446,8237,-421.829,-15.357,8059.643,984.716,401.468,677.848,5.000,78.143,72.002,-3.397,37.500,-7.543,0,0,0,0,0,5.000
56814,-219,455,8285,-417.243,-6.457,8071.357,984.902,404.876,674.548,45.857,89.000,117.139,1.864,34.085,-33.000,0,0,0,0,0,5.000
56914,-541,261,7721,-423.471,-3.829,8069.543,984.286,406.005,675.317,-62.286,26.286,-18.140,-6.159,11.291,7.686,0,0,0,0,0,5.000
57014,13,479,8292,-425.857,3.671,8076.914,983.022,409.986,674.889,-23.857,75.000,73.711,-12.640,39.812,-4.283,0,0,0,0,0,5.000
57114,-92,442,9597,-415.514,13.457,8102.643,982.672,412.151,697.635,103.429,97.857,257.290,-3.505,21.648,227.465,0,0,0,0,0,5.000
57214,-780,326,7482,-420.443,15.457,8089.786,983.622,413.322,700.655,-49.286,20.000,-128.574,9.501,11.704,30.199,0,0,0,0,0,5.000
57314,492,490,8555,-421.900,24.771,8081.829,982.193,416.551,692.112,-14.571,93.143,-79.570,-14.293,32.299,-85.434,0,0,0,0,0,5.000
57414,141,238,7756,-394.771,30.943,8071.071,971.077,416.465,691.240,271.286,61.714,-107.573,-111.158,-0.869,-8.718,0,0,0,0,0,5.000
57514,68,673,8713,-402.514,42.371,8069.872,965.177,422.901,690.051,-77.429,114.286,-11.997,-58.995,64.360,-11.892,0,0,0,0,0,5.000
57614,-1801,1327,8000,-402.114,52.957,8049.429,964.592,445.069,670.339,4.000,105.857,-204.429,-5.857,221.682,-197.112,0,0,0,0,0,5.000
57714,3195,-1242,9454,-359.657,31.743,8079.500,1052.568,470.187,685.292,424.572,-212.143,300.713,879.758,251.186,149.525,0,0,0,0,0,5.000
57814,-2036,2293,6741,-379.071,72.900,8071.543,1070.620,535.670,697.446,-194.143,411.571,-79.570,180.527,654.826,121.542,1,0,0,0,0,5.000
57914,1212,-464,9391,-371.186,72.229,8102.700,1080.234,536.313,706.914,78.857,-6.714,311.572,96.139,6.427,94.681,0,0,0,0,0,5.000
58014,-2115,1437,9185,-357.386,110.786,8113.771,1051.311,536.024,717.628,138.000,385.571,110.713,-289.230,-2.882,107.137,0,0,0,0,0,5.000
58114,2812,-649,10031,-336.471,106.643,8119.628,1098.531,540.739,731.446,209.143,-41.429,58.569,472.197,47.150,138.179,0,0,0,0,0,5.000
58214,-146,1029,8958,-323.829,123.171,8133.229,1095.554,550.902,738.028,126.429,165.286,136.001,-29.773,101.624,65.818,0,0,0,0,0,5.000
58314,-905,925,8078,-338.800,133.700,8120.128,1096.233,559.023,730.717,-149.714,105.286,-131.001,6.790,81.211,-73.106,0,0,0,0,0,5.000
58414,-639,374,8904,-335.814,141.486,8119.657,1095.125,558.520,730.200,29.857,77.857,-4.712,-11.072,-5.029,-5.167,0,0,0,0,0,5.000
58514,3415,-1314,9747,-281.314,121.457,8121.743,1182.054,584.608,734.624,545.000,-200.286,20.854,869.283,260.876,44.233,0,0,0,0,0,5.000
58614,-3142,2427,8099,-318.357,154.700,8124.757,1229.538,645.438,734.091,-370.428,332.429,30.146,474.838,608.306,-5.326,0,0,0,0,0,5.000
58714,2486,-294,8182,-274.971,153.171,8129.229,1273.364,646.372,733.473,433.857,-15.286,44.712,438.265,9.335,-6.184,0,0,0,0,0,5.000
58814,-1250,21,8901,-277.371,155.614,8147.957,1275.040,645.544,736.197,-24.000,24.429,187.285,16.760,-8.278,27.246,0,0,0,0,0,5.000
58914,159,465,9683,-248.443,164.014,8188.700,1261.569,645.689,741.088,289.286,84.000,407.432,-134.707,1.455,48.911,0,0,0,0,0,5.000
59014,-775,278,8965,-249.686,156.400,8221.371,1262.045,641.142,723.982,-12.429,-76.143,326.709,4.751,-45.477,-171.058,0,0,0,0,0,5.000
59114,145,416,8859,-259.229,171.629,8224.871,1256.486,634.432,726.460,-95.429,152.286,35.000,-55.582,-67.099,24.777,0,0,0,0,0,5.000
59214,-547,-440,8812,-296.343,176.300,8230.843,1225.691,628.681,729.537,-371.143,46.714,59.717,-307.954,-57.507,30.771,0,0,0,0,0,5.000
59314,-847,-398,7185,-235.371,160.357,8231.328,1082.232,628.892,728.829,609.714,-159.429,4.854,-1434.589,2.112,-7.081,0,0,0,0,0,5.000
59414,-1014,-459,7706,-258.514,167.614,8201.472,1081.313,618.690,706.589,-231.429,72.571,-298.564,-9.188,-102.028,-222.397,0,0,0,0,0,5.000
59514,-876,206,8836,-251.471,185.400,8187.372,1075.648,601.400,683.564,70.428,177.857,-141.001,-56.650,-172.891,-230.258,0,0,0,0,0,5.000
59614,198,284,9002,-259.471,193.443,8204.714,1070.179,598.895,688.593,-80.000,80.429,173.423,-54.690,-25.050,50.294,0,0,0,0,0,5.000
59714,-1249,14,8942,-276.457,199.043,8234.400,1076.297,595.348,674.808,-169.857,56.000,296.865,61.176,-35.473,-137.849,0,0,0,0,0,5.000
59814,-196,94,8462,-275.086,198.900,8238.015,1076.337,595.372,675.340,13.714,-1.429,36.143,0.404,0.240,5.316,0,0,0,0,0,5.000
59914,-650,301,8320,-277.129,208.700,8248.343,1076.911,591.312,670.972,-20.428,98.000,103.281,5.739,-40.598,-43.680,0,0,0,0,0,5.000
60014,170,256,8649,-279.986,206.743,8252.357,1075.455,590.926,672.514,-28.571,-19.571,40.146,-14.562,-3.867,15.427,0,0,0,0,0,5.000
60114,-388,-17,8123,-269.557,210.471,8248.686,1070.807,588.675,672.509,104.286,37.286,-36.719,-46.475,-22.511,-0.054,0,0,0,0,0,5.000
60214,285,21,8203,-258.814,207.543,8258.814,1072.543,589.100,666.378,107.428,-29.286,101.289,17.358,4.252,-61.314,0,0,0,0,0,5.000
60314,-373,390,8363,-264.086,207.071,8278.457,1072.185,588.940,648.658,-52.714,-4.714,196.426,-3.586,-1.594,-177.195,0,0,0,0,0,5.000
60414,-835,-298,8590,-264.343,206.443,8285.314,1072.319,589.455,649.378,-2.571,-6.286,68.574,1.348,5.151,7.197,0,0,0,0,0,5.000
60514,-214,-143,7475,-253.143,208.043,8276.186,1068.686,588.352,656.178,112.000,16.000,-91.289,-36.329,-11.038,67.997,0,0,0,0,0,5.000
60614,-2421,202,7164,-277.100,210.557,8271.314,1097.822,587.944,663.114,-239.572,25.143,-48.711,291.351,-4.074,69.363,0,0,0,0,0,5.000
60714,-1101,382,9157,-284.429,210.729,8284.929,1101.578,587.992,671.324,-73.286,1.714,136.143,37.567,0.482,82.104,0,0,0,0,0,5.000
60814,-1391,126,8130,-297.443,214.443,8285.328,1109.167,586.623,671.223,-130.143,37.143,3.994,75.889,-13.697,-1.009,0,0,0,0,0,5.000
60914,-1007,60,9574,-313.229,215.686,8303.200,1111.288,586.202,688.422,-157.857,12.429,178.721,21.210,-4.208,171.989,0,0,0,0,0,5.000
61014,352,-391,8161,-305.286,205.543,8302.743,1114.024,590.454,688.506,79.429,-101.429,-4.570,27.357,42.517,0.836,0,0,0,0,0,5.000
61114,-1630,-170,8375,-329.400,200.029,8301.172,1124.123,592.130,688.214,-241.143,-55.143,-15.713,100.990,16.766,-2.922,0,0,0,0,0,5.000
61214,-280,119,7647,-324.929,202.371,8302.243,1123.688,591.480,687.135,44.714,23.429,10.713,-4.351,-6.500,-10.784,0,0,0,0,0,5.000
61314,-1657,-35,7317,-352.914,198.457,8286.857,1132.089,592.131,696.897,-279.857,-39.143,-153.857,84.009,6.509,97.614,0,0,0,0,0,5.000
61414,-397,15,6803,-364.929,201.171,8276.300,1128.023,590.847,713.500,-120.143,27.143,-105.576,-40.656,-12.841,166.034,0,0,0,0,0,5.000
61514,-1198,25,7923,-384.457,200.443,8275.914,1130.441,591.032,713.684,-195.286,-7.286,-3.857,24.177,1.853,1.835,0,0,0,0,0,5.000
61614,-1043,-462,8098,-390.286,203.343,8283.000,1132.767,587.265,709.407,-58.286,29.000,70.859,23.260,-37.675,-42.767,0,0,0,0,0,5.000
61714,-649,-9,8231,-384.771,201.471,8299.214,1130.552,587.730,694.914,55.143,-18.714,162.139,-22.145,4.648,-144.926,0,0,0,0,0,5.000
61814,320,251,8983,-368.557,207.386,8313.214,1132.403,586.113,698.667,162.143,59.143,140.000,18.508,-16.166,37.529,0,0,0,0,0,5.000
61914,-792,334,8212,-369.371,214.371,8312.629,1132.687,584.664,698.735,-8.143,69.857,-5.850,2.837,-14.485,0.674,0,0,0,0,0,5.000
62014,-1368,-18,8976,-383.186,216.100,8321.414,1138.868,583.795,703.140,-138.143,17.286,87.852,61.815,-8.691,44.055,0,0,0,0,0,5.000
62114,-1245,-206,8306,-392.086,208.343,8325.143,1143.126,585.742,702.356,-89.000,-77.572,37.285,42.581,19.465,-7.840,0,0,0,0,0,5.000
62214,-1790,369,7397,-420.257,206.543,8318.714,1152.889,585.051,708.733,-281.714,-18.000,-64.287,97.622,-6.906,63.774,0,0,0,0,0,5.000
62314,935,606,9025,-402.957,208.243,8327.429,1163.957,586.036,713.597,173.000,17.000,87.148,110.680,9.845,48.638,0,0,0,0,0,5.000
62414,-52,-450,7595,-400.786,191.443,8318.972,1164.467,587.806,718.701,21.714,-168.000,-84.570,5.107,17.701,51.040,0,0,0,0,0,5.000
62514,-2268,-209,8301,-421.343,186.929,8316.800,1184.377,589.648,718.523,-205.572,-45.143,-21.719,199.097,18.418,-1.787,0,0,0,0,0,5.000
62614,2193,64,8739,-387.429,187.614,8333.485,1224.097,589.476,714.561,339.143,6.857,166.855,397.201,-1.713,-39.620,0,0,0,0,0,5.000
62714,-1421,189,8755,-398.371,186.900,8348.071,1229.850,589.444,712.593,-109.429,-7.143,145.859,57.532,-0.325,-19.680,0,0,0,0,0,5.000
62814,1635,602,8762,-349.843,195.529,8367.700,1242.046,591.034,704.757,485.286,86.286,196.289,121.958,15.904,-78.353,0,0,0,0,0,5.000
62914,-147,240,9560,-372.129,201.714,8399.000,1224.081,589.199,708.352,-222.857,61.857,312.998,-179.647,-18.357,35.948,0,0,0,0,0,5.000
63014,1113,27,8291,-362.600,194.800,8407.386,1232.976,588.368,703.533,95.286,-69.143,83.857,88.950,-8.306,-48.189,0,0,0,0,0,5.000
63114,3,-148,10413,-363.000,187.143,8437.200,1232.853,589.291,742.590,-4.000,-76.572,298.145,-1.230,9.230,390.566,0,0,0,0,0,5.000
63214,-954,307,9207,-370.800,185.186,8460.400,1234.839,588.661,740.907,-78.000,-19.571,232.002,19.856,-6.294,-16.828,0,0,0,0,0,5.000
63314,-1298,839,9042,-373.043,196.586,8478.157,1236.378,593.466,739.737,-22.429,114.000,177.568,15.386,48.049,-11.699,0,0,0,0,0,5.000
63414,-1401,-553,8625,-389.814,188.486,8484.558,1242.231,599.739,739.041,-167.715,-81.000,64.004,58.539,62.729,-6.956,0,0,0,0,0,5.000
63514,-732,236,7537,-393.614,186.643,8469.972,1242.866,599.392,747.475,-38.000,-18.429,-145.859,6.342,-3.470,84.337,0,0,0,0,0,5.000
63614,109,-247,7425,-392.786,182.071,8460.214,1243.181,601.458,756.539,8.286,-45.714,-97.578,3.153,20.660,90.641,0,0,0,0,0,5.000
63714,280,66,7571,-373.443,176.643,8450.700,1242.965,600.766,763.443,193.428,-54.286,-95.137,-2.163,-6.922,69.037,0,0,0,0,0,5.000
63814,-765,127,7473,-381.243,171.957,8439.100,1243.684,599.855,771.993,-78.000,-46.857,-116.006,7.195,-9.109,85.505,0,0,0,0,0,5.000
63914,-759,410,7526,-384.357,174.086,8436.314,1244.353,600.431,774.926,-31.143,21.286,-27.852,6.689,5.764,29.326,0,0,0,0,0,5.000
64014,-73,422,7914,-385.586,173.271,8430.914,1244.002,600.056,777.226,-12.286,-8.143,-54.004,-3.507,-3.755,23.004,0,0,0,0,0,5.000
64114,61,117,8605,-383.400,168.629,8416.743,1244.651,599.215,764.780,21.857,-46.429,-141.709,6.483,-8.405,-124.467,0,0,0,0,0,5.000
64214,957,363,8119,-358.586,169.157,8425.843,1253.778,599.370,757.357,248.143,5.286,90.996,91.273,1.548,-74.229,0,0,0,0,0,5.000
64314,-2745,30,7717,-404.829,162.586,8413.871,1280.953,598.337,761.831,-462.429,-65.714,-119.717,271.755,-10.329,44.738,0,0,0,0,0,5.000
64414,-401,198,7714,-412.571,162.014,8413.271,1279.268,598.284,762.365,-77.429,-5.714,-5.996,-16.857,-0.532,5.342,0,0,0,0,0,5.000
64514,-1010,149,8480,-427.971,154.529,8409.942,1279.878,595.114,761.557,-154.000,-74.857,-33.291,6.105,-31.705,-8.077,0,0,0,0,0,5.000
64614,353,135,8291,-397.200,137.500,8414.100,1272.369,578.132,760.101,307.714,-170.286,41.572,-75.093,-169.813,-14.562,0,0,0,0,0,5.000
64714,-1160,137,8016,-459.414,157.200,8393.558,1199.593,553.772,751.097,-622.143,197.000,-205.420,-727.760,-243.605,-90.038,0,0,0,0,0,5.000
64814,39,266,7550,-429.771,128.243,8405.114,1185.827,490.742,731.550,296.429,-289.571,115.566,-137.665,-630.302,-195.471,0,0,0,0,0,5.000
64914,68,284,7946,-446.114,138.929,8384.472,1170.876,485.849,723.785,-163.429,106.857,-206.426,-149.504,-48.928,-77.646,0,0,0,0,0,5.000
65014,-133,-207,7660,-417.800,115.443,8362.686,1154.020,461.666,722.311,283.143,-234.857,-217.861,-168.562,-241.826,-14.741,0,0,0,0,0,5.000
65114,41,3,7663,-457.386,124.757,8328.857,1088.200,452.638,698.442,-395.857,93.143,-338.281,-658.202,-90.280,-238.688,0,0,0,0,0,5.000
65214,0,53,7942,-455.300,110.814,8314.343,1088.934,439.409,695.769,20.857,-139.429,-145.146,7.347,-132.299,-26.735,0,0,0,0,0,5.000
65314,1003,71,7602,-428.043,98.614,8307.543,1101.148,428.350,700.357,272.571,-122.000,-67.998,122.135,-110.585,45.876,0,0,0,0,0,5.000
65414,-643,30,8624,-428.100,93.700,8303.543,1101.159,427.134,697.733,-0.572,-49.143,-40.000,0.111,-12.161,-26.234,0,0,0,0,0,5.000
65514,-1059,231,7988,-492.014,115.771,8278.414,1001.579,392.322,676.652,-639.143,220.714,-251.289,-995.801,-348.117,-210.817,0,0,0,0,0,5.000
65614,-995,69,7359,-461.343,82.086,8267.843,951.585,276.590,685.100,306.714,-336.857,-105.713,-499.941,-1157.319,84.483,0,0,0,0,0,5.000
65714,-1240,-135,7438,-514.571,84.357,8257.214,887.268,274.134,692.085,-532.285,22.714,-106.289,-643.170,-24.559,69.850,0,0,0,0,0,5.000
65814,-41,-413,7656,-497.300,78.157,8239.429,884.547,280.335,691.309,172.714,-62.000,-177.852,-27.209,62.005,-7.761,0,0,0,0,0,5.000
65914,-627,-1,7458,-508.529,71.500,8207.643,881.127,276.577,675.167,-112.286,-66.571,-317.861,-34.203,-37.577,-161.415,0,0,0,0,0,5.000
66014,-121,126,7801,-499.186,69.329,8191.014,881.719,275.542,670.628,93.429,-21.714,-166.284,5.921,-10.349,-45.388,0,0,0,0,0,5.000
66114,-407,33,7772,-507.071,63.857,8175.486,878.384,272.389,667.559,-78.857,-54.714,-155.283,-33.344,-31.536,-30.693,0,0,0,0,0,5.000
66214,-495,342,7848,-506.329,75.029,8161.714,878.372,267.487,664.221,7.429,111.714,-137.715,-0.122,-49.018,-33.380,0,0,0,0,0,5.000
66314,-624,218,8087,-503.143,83.829,8174.600,877.535,261.854,653.816,31.857,88.000,128.857,-8.373,-56.333,-104.052,0,0,0,0,0,5.000
66414,-677,213,8198,-498.329,93.429,8181.628,875.641,253.977,651.381,48.143,96.000,70.283,-18.935,-78.772,-24.353,0,0,0,0,0,5.000
66514,-856,127,7907,-498.043,92.300,8168.357,875.521,253.649,647.365,2.857,-11.286,-132.715,-1.201,-3.275,-40.161,0,0,0,0,0,5.000
66614,-1083,-130,8351,-516.343,86.386,8159.057,874.168,253.937,639.955,-183.000,-59.143,-92.998,-13.531,2.877,-74.092,0,0,0,0,0,5.000
66714,-90,-67,7579,-499.786,85.229,8139.586,871.105,254.448,636.564,165.571,-11.571,-194.712,-30.630,5.112,-33.917,0,0,0,0,0,5.000
66814,-918,-24,7832,-510.100,83.543,8130.586,871.721,254.775,636.395,-103.143,-16.857,-90.000,6.163,3.269,-1.685,0,0,0,0,0,5.000
66914,-204,-123,8577,-503.729,77.486,8134.257,872.305,254.573,638.216,63.714,-60.571,36.714,5.837,-2.018,18.209,0,0,0,0,0,5.000
67014,-59,-183,7974,-507.000,71.214,8124.614,870.199,255.504,635.459,-32.714,-62.714,-96.431,-21.061,9.307,-27.567,0,0,0,0,0,5.000
67114,-54,57,8848,-502.229,72.271,8134.971,871.753,255.290,641.231,47.714,10.571,103.569,15.538,-2.142,57.713,0,0,0,0,0,5.000
67214,-553,213,8550,-514.200,75.014,8139.929,866.599,255.755,643.076,-119.714,27.429,49.575,-51.542,4.654,18.454,0,0,0,0,0,5.000
67314,-20,49,8346,-509.157,70.143,8139.686,868.431,252.941,642.995,50.429,-48.714,-2.432,18.322,-28.139,-0.811,0,0,0,0,0,5.000
67414,-817,179,8672,-508.900,76.957,8140.857,868.337,249.331,643.888,2.571,68.143,11.714,-0.938,-36.101,8.934,0,0,0,0,0,5.000
67514,-610,6,8971,-514.557,79.086,8162.229,867.687,248.077,646.256,-56.571,21.286,213.716,-6.501,-12.540,23.674,0,0,0,0,0,5.000
67614,-533,345,9204,-487.586,81.129,8191.372,836.801,249.664,646.580,269.714,20.429,291.431,-308.857,15.874,3.246,0,0,0,0,0,5.000
67714,1292,48,8657,-453.400,76.357,8184.229,859.613,247.047,638.586,341.857,-47.714,-71.431,228.115,-26.178,-79.946,0,0,0,0,0,5.000
67814,-2716,290,7658,-472.329,78.700,8177.486,893.953,248.281,641.608,-189.286,23.429,-67.427,343.398,12.342,30.219,0,0,0,0,0,5.000
67914,518,343,7672,-450.543,82.743,8150.314,899.224,250.240,621.861,217.857,40.429,-271.714,52.712,19.590,-197.464,0,0,0,0,0,5.000
68014,33,307,7611,-455.100,92.714,8142.457,895.947,245.016,625.143,-45.572,99.714,-78.574,-32.764,-52.239,32.815,0,0,0,0,0,5.000
68114,-279,62,7872,-435.800,96.029,8135.271,884.914,243.001,625.319,193.000,33.143,-71.855,-110.336,-20.153,1.765,0,0,0,0,0,5.000
68214,1506,64,7591,-410.286,95.243,8134.471,914.298,243.014,625.979,255.143,-7.857,-8.003,293.839,0.134,6.597,0,0,0,0,0,5.000
68314,-562,322,8660,-394.643,100.343,8153.657,902.120,243.971,621.193,156.429,51.000,191.860,-121.780,9.573,-47.863,0,0,0,0,0,5.000
68414,660,-17,7896,-379.543,99.886,8169.271,910.759,244.161,600.436,151.000,-4.571,156.143,86.392,1.894,-207.564,0,0,0,0,0,5.000
68514,-3117,-65,7656,-406.957,98.600,8165.457,962.400,244.788,602.832,-274.143,-12.857,-38.145,516.407,6.271,23.957,0,0,0,1,0,5.000
68614,-1253,43,8398,-409.957,105.814,8169.743,964.702,235.422,603.403,-30.000,72.143,42.856,23.025,-93.656,5.714,0,0,0,0,0,5.000
68714,742,122,8828,-390.086,107.686,8178.271,973.856,235.022,608.407,198.714,18.714,85.288,91.542,-3.998,50.037,0,0,0,0,0,5.000
68814,-986,-183,9444,-408.743,101.486,8184.857,972.583,236.877,619.477,-186.571,-62.000,65.854,-12.731,18.548,110.695,0,0,0,0,0,5.000
68914,654,39,8129,-388.086,97.271,8183.671,979.555,235.322,619.503,206.571,-42.143,-11.855,69.715,-15.551,0.264,0,0,0,0,0,5.000
69014,-7,185,7319,-368.643,100.171,8160.000,973.399,235.134,620.432,194.429,29.000,-236.714,-61.553,-1.877,9.291,0,0,0,0,0,5.000
69114,-32,240,8166,-351.314,106.543,8158.000,968.428,232.783,620.184,173.286,63.714,-20.000,-49.709,-23.518,-2.483,0,0,0,0,0,5.000
69214,-759,72,7974,-336.586,102.300,8166.243,954.171,230.657,613.816,147.286,-42.429,82.427,-142.574,-21.254,-63.673,0,0,0,0,0,5.000
69314,1145,160,8126,-333.586,95.929,8153.400,958.485,222.677,605.057,30.000,-63.714,-128.428,43.137,-79.798,-87.597,0,0,0,0,0,5.000
69414,-348,438,8881,-337.814,108.614,8171.771,957.886,216.422,607.342,-42.286,126.857,183.716,-5.988,-62.560,22.855,0,0,0,0,0,5.000
69514,591,-71,8703,-296.971,110.586,8177.514,935.403,214.136,610.430,408.429,19.714,57.427,-224.832,-22.858,30.875,0,0,0,0,0,5.000
69614,86,149,8604,-327.071,111.800,8175.586,887.466,214.109,608.864,-301.000,12.143,-19.282,-479.363,-0.266,-15.658,0,0,0,0,0,5.000
69714,-191,306,8558,-309.500,113.471,8172.771,877.757,215.159,606.630,175.714,16.714,-28.145,-97.096,10.502,-22.334,0,0,0,0,0,5.000
69814,-1302,466,8256,-351.457,111.529,8165.543,853.671,211.319,602.567,-419.572,-19.429,-72.285,-240.862,-38.404,-40.632,0,0,0,0,0,5.000
69914,-67,234,8612,-350.314,111.443,8152.000,853.997,211.268,581.354,11.429,-0.857,-135.430,3.264,-0.509,-212.132,0,0,0,0,0,5.000
70014,350,137,8491,-361.214,113.014,8154.857,840.005,211.043,582.521,-109.000,15.714,28.569,-139.921,-2.249,11.664,0,0,0,0,0,5.000
70114,-570,275,7619,-369.400,119.057,8114.943,839.207,209.533,518.646,-81.857,60.429,-399.141,-7.975,-15.097,-638.749,0,0,0,0,0,5.000
70214,-346,107,8073,-360.714,116.200,8098.743,836.253,208.311,501.716,86.857,-28.571,-162.002,-29.543,-12.222,-169.295,0,0,0,0,0,5.000
70314,-720,362,7833,-352.457,109.386,8081.471,829.786,191.695,489.611,82.571,-68.143,-172.715,-64.669,-166.167,-121.050,0,0,0,0,0,5.000
70414,1380,546,8332,-312.729,125.086,8077.286,845.067,181.537,486.187,397.286,157.000,-41.855,152.805,-101.575,-34.241,0,0,0,0,0,5.000
70514,-1661,420,8802,-326.000,127.714,8095.357,858.731,184.433,489.269,-132.714,26.286,180.713,136.646,28.960,30.820,0,0,0,0,0,5.000
70614,332,133,7992,-322.814,133.143,8103.457,860.750,178.831,482.754,31.857,54.286,81.001,20.192,-56.018,-65.150,0,0,0,0,0,5.000
70714,-671,-49,8225,-336.400,131.500,8112.800,858.631,179.965,478.670,-135.857,-16.429,93.428,-21.193,11.339,-40.840,0,0,0,0,0,5.000
70814,-1883,502,7610,-352.371,136.857,8114.757,876.664,185.255,476.324,-159.714,53.571,19.575,180.325,52.900,-23.456,0,0,0,0,0,5.000
70914,275,128,7344,-337.600,132.829,8112.157,878.397,182.314,480.014,147.714,-40.286,-26.001,17.335,-29.408,36.891,0,0,0,0,0,5.000
71014,224,205,7816,-333.357,129.729,8110.757,880.380,179.189,480.732,42.429,-31.000,-13.999,19.829,-31.252,7.182,0,0,0,0,0,5.000
71114,652,-133,8420,-324.914,126.157,8108.114,886.931,181.879,478.511,84.429,-35.714,-26.431,65.509,26.893,-22.210,0,0,0,0,0,5.000
71214,-147,-119,8005,-340.686,119.271,8106.486,873.713,181.906,478.665,-157.714,-68.857,-16.284,-132.181,0.270,1.541,0,0,0,0,0,5.000
71314,1461,73,8106,-280.600,119.886,8112.043,850.620,181.676,476.363,600.857,6.143,55.571,-230.928,-2.300,-23.015,0,0,0,0,0,5.000
71414,681,716,7529,-265.143,127.286,8109.400,858.090,194.783,479.070,154.572,74.000,-26.431,74.697,131.078,27.065,0,0,0,0,0,5.000
71514,-2496,151,8219,-286.371,127.314,8105.671,893.889,194.787,477.183,-212.286,0.286,-37.285,357.993,0.033,-18.870,0,0,0,0,0,5.000
71614,-562,119,8743,-299.443,127.086,8112.128,891.130,194.787,482.674,-130.714,-2.286,64.570,-27.594,0.002,54.908,0,0,0,0,0,5.000
71714,-898,472,7553,-295.700,131.871,8105.514,888.052,199.041,487.098,37.429,47.857,-66.143,-30.773,42.537,44.240,0,0,0,0,0,5.000
71814,-181,225,7687,-298.843,131.286,8107.471,887.251,198.705,485.133,-31.429,-5.857,19.570,-8.012,-3.355,-19.647,0,0,0,0,0,5.000
71914,490,-51,7576,-292.814,126.500,8102.186,891.148,199.003,488.865,60.286,-47.857,-52.856,38.972,2.982,37.318,0,0,0,0,0,5.000
72014,-455,678,6803,-297.414,139.143,8089.943,891.143,205.423,510.057,-46.000,126.429,-122.427,-0.057,64.197,211.923,0,0,0,0,0,5.000
72114,62,436,5997,-297.114,145.329,8066.143,891.260,207.737,565.301,3.000,61.857,-237.998,1.173,23.136,552.438,0,0,0,0,0,5.000
72214,-1182,104,6995,-314.000,146.057,8052.614,896.651,207.501,579.269,-168.857,7.286,-135.288,53.915,-2.358,139.680,0,0,0,0,0,5.000
72314,-561,230,6752,-336.343,148.329,8040.471,882.937,207.537,597.219,-223.429,22.714,-121.431,-137.142,0.362,179.496,0,0,0,0,0,5.000
72414,-610,299,8065,-335.871,152.171,8032.486,882.782,207.801,593.086,4.714,38.429,-79.854,-1.551,2.637,-41.330,0,0,0,0,0,5.000
72514,-602,237,8528,-329.343,152.257,8040.200,879.092,207.834,595.962,65.286,0.857,77.144,-36.899,0.337,28.762,0,0,0,0,0,5.000
72614,-1392,142,8510,-335.014,153.300,8056.643,884.632,207.597,592.810,-56.714,10.429,164.429,55.394,-2.374,-31.515,0,0,0,0,0,5.000
72714,212,9,8113,-314.271,155.357,8066.286,880.180,205.432,588.140,207.429,20.571,96.426,-44.512,-21.649,-46.700,0,0,0,0,0,5.000
72814,-2381,385,7471,-347.700,166.757,8063.643,912.991,195.477,590.389,-334.286,114.000,-26.426,328.107,-99.556,22.491,0,0,0,0,0,5.000
72914,193,-263,7400,-335.986,163.014,8062.814,914.591,201.081,591.279,117.143,-37.429,-8.286,16.005,56.042,8.894,0,0,0,0,0,5.000
73014,-446,0,8011,-340.629,161.214,8065.814,914.313,201.966,590.475,-46.429,-18.000,30.000,-2.784,8.853,-8.038,0,0,0,0,0,5.000
73114,1426,-38,9370,-314.443,160.200,8088.643,937.979,202.784,609.266,261.857,-10.143,228.286,236.664,8.180,187.909,0,0,0,0,0,5.000
73214,-1664,-218,8796,-331.143,152.200,8102.186,951.357,206.467,614.282,-167.000,-80.000,135.425,133.771,36.828,50.159,0,0,0,0,0,5.000
73314,-204,673,8711,-325.143,158.700,8111.100,950.815,215.405,618.510,60.000,65.000,89.146,-5.417,89.379,42.281,0,0,0,0,0,5.000
73414,-487,-25,8100,-322.429,155.300,8109.700,950.078,216.397,618.423,27.143,-34.000,-13.999,-7.374,9.921,-0.874,0,0,0,0,0,5.000
73514,-334,177,8361,-314.971,156.014,8116.186,947.906,216.385,618.643,74.571,7.143,64.854,-21.711,-0.121,2.207,0,0,0,0,0,5.000
73614,-835,-126,8046,-311.429,156.071,8111.829,945.490,216.310,618.048,35.429,0.571,-43.569,-24.168,-0.750,-5.953,0,0,0,0,0,5.000
73714,-441,232,7878,-316.443,160.343,8116.100,945.233,214.810,615.378,-50.143,42.714,42.715,-2.569,-15.002,-26.697,0,0,0,0,0,5.000
73814,73,335,7408,-302.286,165.471,8110.043,943.537,214.633,620.213,141.572,51.286,-60.571,-16.962,-1.769,48.342,0,0,0,0,0,5.000
73914,-886,384,8070,-312.029,172.714,8102.800,945.990,213.326,617.672,-97.429,72.428,-72.432,24.529,-13.063,-25.403,0,0,0,0,0,5.000
74014,-123,343,7403,-312.943,180.229,8094.643,945.775,209.901,623.066,-9.143,75.143,-81.567,-2.141,-34.256,53.939,0,0,0,0,0,5.000
74114,-1083,440,7812,-327.643,185.700,8079.843,949.625,211.602,617.273,-147.000,54.714,-148.003,38.499,17.014,-57.933,0,0,0,0,0,5.000
74214,154,304,7767,-317.543,187.000,8068.657,950.934,212.045,615.744,101.000,13.000,-111.855,13.083,4.428,-15.286,0,0,0,0,0,5.000
74314,385,324,7900,-311.757,190.929,8062.286,953.954,211.999,615.149,57.857,39.286,-63.716,30.201,-0.457,-5.956,0,0,0,0,0,5.000
74414,1394,401,7840,-280.171,194.100,8050.400,973.113,213.453,611.279,315.857,31.714,-118.857,191.593,14.534,-38.699,0,0,0,0,0,5.000
74514,1164,349,8374,-254.829,199.000,8041.872,987.192,213.015,602.476,253.428,49.000,-85.283,140.787,-4.377,-88.024,0,0,0,0,0,5.000
74614,-387,351,7956,-252.743,199.086,8024.043,986.756,213.075,586.065,20.857,0.857,-178.286,-4.358,0.599,-164.117,0,0,0,0,0,5.000
74714,-1227,72,7873,-288.729,199.429,8012.843,975.635,212.851,581.334,-359.857,3.429,-112.002,-111.213,-2.242,-47.309,0,0,0,0,0,5.000
74814,-544,45,7724,-257.700,195.929,8013.786,931.485,213.346,580.811,310.286,-35.000,9.429,-441.494,4.957,-5.230,0,0,0,0,0,5.000
74914,-1675,228,7796,-289.029,194.286,8015.557,941.692,212.649,579.954,-313.286,-16.429,17.715,102.067,-6.972,-8.567,0,0,0,0,0,5.000
75014,541,282,8452,-281.771,193.929,8027.571,946.093,212.480,580.160,72.571,-3.571,120.142,44.008,-1.687,2.057,0,0,0,0,0,5.000
75114,431,-57,8433,-271.629,192.229,8035.586,949.867,214.000,581.828,101.429,-17.000,80.146,37.737,15.193,16.680,0,0,0,0,0,5.000
75214,419,168,8163,-287.157,193.714,8043.757,929.342,213.465,579.539,-155.286,14.857,81.714,-205.245,-5.351,-22.891,0,0,0,0,0,5.000
75314,-2197,201,8484,-310.514,191.986,8041.243,956.117,212.908,577.237,-233.571,-17.286,-25.146,267.747,-5.566,-23.019,0,0,0,0,0,5.000
75414,543,420,8309,-312.186,198.229,8047.143,954.520,213.095,577.833,-16.714,62.429,59.004,-15.972,1.874,5.958,0,0,0,0,0,5.000
75514,-1550,288,8622,-289.800,203.271,8060.943,905.599,210.973,579.858,223.857,50.428,137.998,-489.207,-21.227,20.253,0,0,0,0,0,5.000
75614,1444,155,8523,-251.271,204.871,8062.729,921.040,210.174,581.085,385.286,16.000,17.856,154.413,-7.984,12.265,0,0,0,0,0,5.000
75714,-62,-37,8450,-262.757,202.600,8057.329,913.565,211.910,575.679,-114.857,-22.714,-53.999,-74.753,17.354,-54.056,0,0,0,0,0,5.000
75814,461,-8,8553,-242.086,205.100,8044.600,913.337,208.348,554.333,206.714,25.000,-127.285,-2.281,-35.615,-213.463,0,0,0,0,0,5.000
75914,231,-96,7996,-248.129,203.171,8042.700,908.776,210.491,554.268,-60.429,-19.286,-18.999,-45.608,21.424,-0.646,0,0,0,0,0,5.000
76014,31,-356,8265,-247.586,195.443,8056.214,908.931,220.700,547.955,5.429,-77.286,135.142,1.552,102.096,-63.133,0,0,0,0,0,5.000
76114,1611,-214,7972,-224.114,188.957,8053.443,935.034,225.905,547.883,234.714,-64.857,-27.715,261.029,52.048,-0.717,0,0,0,0,0,5.000
76214,133,181,7985,-211.371,190.514,8053.600,933.735,225.469,547.862,127.429,15.571,1.572,-12.991,-4.362,-0.214,0,0,0,0,0,5.000
76314,182,153,7673,-225.129,190.414,8047.128,920.652,225.484,549.641,-137.571,-1.000,-64.717,-130.828,0.150,17.792,0,0,0,0,0,5.000
76414,954,87,8504,-206.529,185.400,8041.743,931.075,223.819,543.254,186.000,-50.143,-53.857,104.230,-16.649,-63.872,0,0,0,0,0,5.000
76514,2995,105,7633,-172.186,187.914,8026.457,1001.529,221.905,539.473,343.428,25.143,-152.856,704.539,-19.141,-37.808,0,0,1,0,0,5.000
76614,-1066,957,7823,-188.643,199.457,8015.300,1006.603,239.868,535.475,-164.571,115.428,-111.572,50.743,179.635,-39.984,0,0,0,0,0,5.000
76714,-1285,275,7891,-204.271,199.014,8005.771,1014.977,239.700,531.654,-156.286,-4.429,-95.283,83.732,-1.685,-38.211,0,0,0,0,0,5.000
76814,74,339,7831,-184.614,197.200,7999.700,1006.818,238.148,531.188,196.571,-18.143,-60.713,-81.584,-15.521,-4.658,0,0,0,0,0,5.000
76914,-657,171,8154,-193.043,196.300,7993.157,1008.267,238.126,526.405,-84.286,-9.000,-65.430,14.487,-0.217,-47.831,0,0,0,0,0,5.000
77014,898,-146,8527,-185.214,192.257,7993.671,1014.561,241.477,526.908,78.286,-40.429,5.142,62.938,33.512,5.035,0,0,0,0,0,5.000
77114,-313,143,8965,-181.543,190.371,8012.900,1013.626,241.339,537.341,36.714,-18.857,192.285,-9.344,-1.381,104.329,0,0,0,0,0,5.000
77214,311,-194,8763,-172.157,186.071,8022.757,1015.100,245.433,544.632,93.857,-43.000,98.574,14.744,40.939,72.913,0,0,0,0,0,5.000
77314,-381,21,8211,-167.314,181.200,8028.157,1013.282,245.277,544.598,48.429,-48.714,53.999,-18.181,-1.562,-0.342,0,0,0,0,0,5.000
77414,144,-177,8109,-184.971,170.871,8024.971,996.800,244.920,543.462,-176.572,-103.286,-31.860,-164.819,-3.567,-11.356,0,0,0,0,0,5.000
77514,2885,426,8520,-120.029,170.957,8020.943,1045.423,245.008,538.712,649.429,0.857,-40.283,486.224,0.882,-47.504,0,0,0,0,0,5.000
77614,2047,357,8502,-95.529,174.157,8028.229,1075.396,245.953,541.712,245.000,32.000,72.856,299.728,9.444,29.997,0,0,0,0,0,5.000
77714,-431,535,8599,-92.100,182.500,8033.571,1073.937,248.137,545.458,34.286,83.428,53.428,-14.586,21.840,37.458,0,0,0,0,0,5.000
77814,-1866,194,9053,-91.857,178.100,8054.186,1073.534,245.145,556.221,2.429,-44.000,206.143,-4.032,-29.917,107.637,0,0,0,0,0,5.000
77914,2064,-33,8315,-66.300,175.800,8068.057,1102.858,246.356,550.414,255.571,-23.000,138.716,293.239,12.115,-58.067,0,0,0,0,0,5.000
78014,318,433,8067,-64.957,179.057,8071.643,1103.267,248.221,549.578,13.429,32.571,35.859,4.098,18.647,-8.366,0,0,0,0,0,5.000
78114,650,161,7631,-64.986,183.257,8060.372,1103.249,245.376,550.408,-0.286,42.000,-112.715,-0.186,-28.447,8.300,0,0,0,0,0,5.000
78214,380,184,7947,-57.457,187.586,8059.543,1104.461,242.664,550.534,75.286,43.286,-8.286,12.120,-27.126,1.264,0,0,0,0,0,5.000
78314,-447,137,8225,-84.714,188.500,8061.243,1090.101,242.351,550.859,-272.571,9.143,16.997,-143.599,-3.131,3.245,0,0,0,0,0,5.000
78414,1109,41,7588,-78.600,178.857,8062.086,1095.565,234.471,550.088,61.143,-96.429,8.433,54.642,-78.798,-7.705,0,0,0,0,0,5.000
78514,-112,275,7904,-44.543,180.629,8057.586,1056.237,234.722,550.075,340.571,17.714,-45.000,-393.285,2.511,-0.135,0,0,0,0,0,5.000
78614,99,212,8469,-35.100,181.957,8053.671,1054.522,234.633,546.144,94.429,13.286,-39.146,-17.150,-0.894,-39.304,0,0,0,0,0,5.000
78714,-738,132,7840,-32.814,177.100,8057.771,1052.821,232.084,543.441,22.857,-48.571,41.001,-17.008,-25.492,-27.035,0,0,0,0,0,5.000
78814,965,-31,8804,-16.443,173.443,8073.729,1059.280,233.314,548.694,163.714,-36.572,159.570,64.587,12.301,52.527,0,0,0,0,0,5.000
78914,-228,166,7721,-26.700,176.543,8075.800,1057.801,231.747,547.082,-102.571,31.000,20.713,-14.784,-15.664,-16.116,0,0,0,0,0,5.000
79014,553,242,7726,-12.300,170.314,8088.986,1058.734,223.913,527.001,144.000,-62.286,131.860,9.321,-78.345,-200.813,0,0,0,0,0,5.000
79114,-548,293,7527,-21.014,168.271,8110.843,1060.595,222.125,468.235,-87.143,-20.429,218.569,18.613,-17.881,-587.661,0,0,0,0,0,5.000
79214,-1842,333,7814,-30.443,171.543,8122.543,1073.726,222.839,450.087,-94.286,32.714,117.002,131.315,7.145,-181.476,0,0,0,0,0,5.000
79314,1054,-143,8013,-7.371,166.214,8140.557,1079.414,225.817,419.036,230.714,-53.286,180.142,56.877,29.782,-310.511,0,0,0,0,0,5.000
79414,-1390,395,7610,-18.514,167.586,8134.057,1089.556,226.909,423.661,-111.429,13.714,-65.000,101.418,10.911,46.250,0,0,0,0,0,5.000
79514,615,374,7608,-1.129,169.543,8120.914,1089.816,228.087,425.502,173.857,19.572,-131.431,2.604,11.781,18.413,0,0,0,0,0,5.000
79614,-333,407,7997,14.000,173.329,8113.586,1077.686,229.791,423.149,151.286,37.857,-73.281,-121.299,17.042,-23.531,0,0,0,0,0,5.000
79714,751,-46,8191,21.700,172.543,8114.700,1080.994,230.445,423.249,77.000,-7.857,11.143,33.077,6.537,0.997,0,0,0,0,0,5.000
79814,-224,87,8449,52.514,168.286,8128.671,1042.109,229.230,417.878,308.143,-42.571,139.712,-388.855,-12.148,-53.714,0,0,0,0,0,5.000
79914,-380,291,8142,44.329,176.200,8139.271,1043.223,223.700,408.567,-81.857,79.143,106.001,11.140,-55.301,-93.109,0,0,0,0,0,5.000
80014,846,280,8090,62.786,180.200,8140.400,1045.810,223.016,408.320,184.571,40.000,11.284,25.878,-6.841,-2.468,0,0,0,0,0,5.000
80114,-34,314,7922,41.929,185.229,8119.714,1032.894,222.005,381.287,-208.571,50.286,-206.855,-129.163,-10.105,-270.328,0,0,0,0,0,5.000
80214,133,306,8450,67.600,192.714,8114.771,1012.302,217.062,374.673,256.714,74.857,-49.429,-205.920,-49.433,-66.138,0,0,0,0,0,5.000
80314,-154,412,7960,68.314,188.986,8104.043,1012.128,210.935,368.142,7.143,-37.286,-107.285,-1.743,-61.269,-65.309,0,0,0,0,0,5.000
80414,1206,56,8212,92.500,190.143,8105.643,1018.775,209.978,368.365,241.857,11.571,16.001,66.475,-9.570,2.224,0,0,0,0,0,5.000
80514,-73,763,7051,96.229,198.514,8086.929,1017.685,220.695,387.686,37.286,83.714,-187.144,-10.908,107.170,193.211,0,0,0,0,0,5.000
80614,180,400,7877,110.729,206.029,8084.514,1011.525,218.461,388.459,145.000,75.143,-24.146,-61.593,-22.337,7.729,0,0,0,0,0,5.000
80714,-90,342,8262,115.743,207.600,8090.000,1009.646,219.037,388.215,50.143,15.714,54.858,-18.792,5.760,-2.438,0,0,0,0,0,5.000
80814,1655,-43,8532,138.343,202.200,8106.057,1026.010,220.484,382.883,226.000,-54.000,160.571,163.637,14.473,-53.321,0,0,0,0,0,5.000
80914,-434,152,7722,144.800,198.886,8101.086,1020.953,219.468,385.568,64.572,-33.143,-49.712,-50.573,-10.163,26.858,0,0,0,0,0,5.000
81014,-133,-105,8149,144.657,192.486,8111.743,1020.991,221.693,376.325,-1.429,-64.000,106.567,0.382,22.250,-92.435,0,0,0,0,0,5.000
81114,327,338,8132,164.800,191.029,8116.314,1010.426,220.393,374.596,201.429,-14.572,45.718,-105.648,-13.002,-17.293,0,0,0,0,0,5.000
81214,459,126,8378,169.157,188.486,8125.043,1011.027,220.101,373.471,43.571,-25.428,87.285,6.014,-2.914,-11.243,0,0,0,0,0,5.000
81314,774,105,7962,174.714,185.357,8125.929,1013.265,219.709,373.010,55.571,-31.286,8.857,22.378,-3.924,-4.615,0,0,0,0,0,5.000
81414,-38,-106,8160,154.257,178.114,8130.500,1002.844,220.835,371.435,-204.571,-72.429,45.713,-104.211,11.257,-15.748,0,0,0,0,0,5.000
81514,-146,68,7943,135.543,174.100,8124.343,996.026,220.245,370.920,-187.143,-40.143,-61.572,-68.178,-5.896,-5.154,0,0,0,0,0,5.000
81614,1204,-149,7785,158.271,166.957,8121.900,1001.978,222.489,372.580,227.286,-71.429,-24.429,59.517,22.435,16.600,0,0,0,0,0,5.000
81714,-767,91,8127,164.843,167.229,8125.529,994.350,222.384,371.373,65.714,2.714,36.289,-76.275,-1.045,-12.068,0,0,0,0,0,5.000
81814,1353,417,8220,191.943,172.543,8132.614,1000.494,223.840,368.364,271.000,53.143,70.854,61.434,14.557,-30.091,0,0,0,0,0,5.000
81914,-578,305,8500,207.614,173.643,8142.671,979.499,224.298,368.646,156.714,11.000,100.571,-209.948,4.586,2.827,0,0,0,0,0,5.000
82014,417,187,7816,205.843,172.286,8133.586,979.007,223.926,368.748,-17.714,-13.571,-90.854,-4.924,-3.727,1.017,0,0,0,0,0,5.000
82114,-522,334,8197,192.229,177.871,8130.214,982.401,223.011,367.070,-136.143,55.857,-33.716,33.947,-9.142,-16.779,0,0,0,0,0,5.000
82214,-237,177,7836,182.857,178.000,8125.543,983.322,223.008,368.700,-93.714,1.286,-46.714,9.204,-0.032,16.302,0,0,0,0,0,5.000
82314,-822,92,7675,202.500,176.443,8113.986,948.710,223.223,369.960,196.429,-15.571,-115.571,-346.117,2.144,12.599,0,0,0,0,0,5.000
82414,-222,471,7507,191.571,177.171,8102.529,949.131,224.098,376.111,-109.286,7.286,-114.570,4.207,8.753,61.506,0,0,0,0,0,5.000
82514,-6,134,7559,213.629,174.971,8087.343,926.062,223.755,376.290,220.571,-22.000,-151.860,-230.688,-3.432,1.790,0,0,0,0,0,5.000
82614,598,14,7913,201.543,172.957,8078.628,915.385,224.559,373.150,-120.857,-20.143,-87.144,-106.771,8.039,-31.398,0,0,0,0,0,5.000
82714,2373,-719,8164,236.329,163.214,8074.543,950.309,247.118,370.619,347.857,-97.429,-40.854,349.243,225.597,-25.314,0,0,0,0,0,5.000
82814,-2080,587,9064,200.029,171.714,8081.843,988.785,251.281,384.735,-363.000,85.000,72.998,384.761,41.625,141.158,0,0,0,0,0,5.000
82914,503,56,7010,203.914,173.886,8067.757,989.434,249.609,405.129,38.857,21.714,-140.854,6.485,-16.716,203.939,0,0,0,0,0,5.000
83014,-663,-119,8462,194.000,177.271,8070.571,994.580,243.942,407.168,-99.143,33.857,28.140,51.464,-56.674,20.396,0,0,0,0,0,5.000
83114,-76,-768,11480,169.900,169.357,8120.686,980.289,264.618,573.756,-241.000,-79.143,501.143,-142.912,206.763,1665.876,0,0,0,0,1,5.000
83214,1590,122,8964,190.714,168.514,8134.671,994.648,264.674,582.148,208.143,-8.429,139.858,143.585,0.556,83.926,0,0,0,0,0,5.000
83314,56,279,8351,188.914,170.314,8144.357,994.776,264.990,580.023,-18.000,18.000,96.855,1.282,3.166,-21.254,0,0,0,0,0,5.000
83414,226,241,8506,178.514,172.514,8144.386,990.519,264.929,580.041,-104.000,22.000,0.288,-42.568,-0.616,0.177,0,0,0,0,0,5.000
83514,15,127,7946,135.943,172.829,8148.857,930.793,264.862,577.281,-425.714,3.143,44.712,-597.264,-0.672,-27.595,0,0,0,0,0,5.000
83614,-2050,79,8313,121.886,160.286,8155.857,955.929,247.660,576.257,-140.571,-125.428,70.000,251.368,-172.016,-10.238,0,0,0,0,0,5.000
83714,610,-343,7913,148.957,151.457,8156.171,942.441,254.338,576.119,270.714,-88.286,3.145,-134.880,66.784,-1.385,0,0,0,0,0,5.000
83814,-256,-119,8143,144.243,144.914,8160.628,943.629,255.319,574.791,-47.143,-65.428,44.570,11.877,9.805,-13.275,0,0,0,0,0,5.000
83914,867,-127,8370,166.014,140.657,8163.714,942.472,257.325,575.327,217.714,-42.571,30.859,-11.572,20.060,5.356,0,0,0,0,0,5.000
84014,-400,276,8176,147.471,146.686,8158.700,940.655,255.475,573.666,-185.428,60.286,-50.142,-18.169,-18.497,-16.609,0,0,0,0,0,5.000
84114,-779,-17,7765,140.814,144.400,8141.557,945.527,256.213,567.209,-66.572,-22.857,-171.431,48.718,7.374,-64.574,0,0,0,0,0,5.000
84214,-891,-48,8195,123.643,146.486,8133.443,953.164,254.034,562.302,-171.714,20.857,-81.143,76.370,-21.783,-49.066,0,0,0,0,0,5.000
84314,-605,-467,8167,120.443,139.514,8132.814,955.226,263.887,562.240,-32.000,-69.714,-6.284,20.626,98.530,-0.625,0,0,0,0,0,5.000
84414,-350,-255,8513,113.386,138.400,8138.586,956.850,265.382,564.036,-70.571,-11.143,57.715,16.234,14.946,17.966,0,0,0,0,0,5.000
84514,-122,-227,8196,70.429,129.071,8133.957,897.088,266.583,562.214,-429.571,-93.286,-46.289,-597.617,12.007,-18.224,0,0,0,0,0,5.000
84614,-995,-269,8086,26.971,120.129,8128.014,873.661,269.273,560.488,-434.571,-89.429,-59.429,-234.275,26.902,-17.258,0,0,0,0,0,5.000
84714,-259,-243,8229,29.429,109.014,8122.729,872.610,267.973,557.759,24.571,-111.143,-52.856,-10.502,-13.004,-27.286,0,0,0,0,0,5.000
84814,73,-511,7996,57.129,98.943,8107.628,842.250,277.662,546.566,277.000,-100.714,-151.001,-303.604,96.898,-111.937,0,0,0,0,0,5.000
84914,-1084,-88,8393,12.157,98.157,8108.743,817.575,278.112,547.067,-449.714,-7.857,11.143,-246.750,4.497,5.010,0,0,0,0,0,5.000
85014,498,-476,7798,14.729,85.171,8104.900,818.815,283.347,548.290,25.714,-129.857,-38.428,12.401,52.346,12.231,0,0,0,0,0,5.000
85114,-674,-249,8675,-4.186,79.314,8119.814,819.214,285.944,549.394,-189.143,-58.571,149.146,3.988,25.977,11.044,0,0,0,0,0,5.000
85214,-737,129,7989,-20.143,78.529,8120.414,822.447,285.731,549.228,-159.571,-7.857,5.996,32.336,-2.133,-1.661,0,0,0,0,0,5.000
85314,-450,-370,8699,-20.186,71.286,8127.186,822.470,290.543,553.382,-0.429,-72.429,67.715,0.225,48.114,41.539,0,0,0,0,0,5.000
85414,-850,-872,8646,-48.171,58.243,8142.300,816.881,311.357,552.897,-279.857,-130.429,151.143,-55.884,208.141,-4.847,0,0,0,0,0,5.000
85514,-478,-319,7451,-53.400,49.757,8135.829,818.443,313.421,558.273,-52.286,-84.857,-64.712,15.616,20.645,53.762,0,0,0,0,0,5.000
85614,-1767,-517,6695,-80.057,39.343,8110.486,843.063,319.902,582.321,-266.571,-104.143,-253.428,246.202,64.805,240.480,0,0,0,0,0,5.000
85714,706,-549,7101,-59.429,29.614,8099.929,844.377,327.208,593.717,206.286,-97.286,-105.571,13.140,73.058,113.953,0,0,0,0,0,5.000
85814,-862,61,8321,-85.529,30.929,8093.029,840.536,327.146,588.276,-261.000,13.143,-68.999,-38.409,-0.614,-54.409,0,0,0,0,0,5.000
85914,367,27,7353,-77.029,28.943,8087.771,842.060,326.742,593.201,85.000,-19.857,-52.573,15.233,-4.043,49.249,0,0,0,0,0,5.000
86014,-408,-68,8741,-90.757,24.514,8102.271,839.506,325.924,596.576,-137.286,-44.286,145.000,-25.536,-8.179,33.752,0,0,0,0,0,5.000
86114,-1507,-347,8146,-104.457,15.371,8111.114,854.546,327.238,592.557,-137.000,-91.429,88.428,150.404,13.142,-40.184,0,0,0,0,0,5.000
86214,-156,-416,7572,-80.371,4.671,8107.657,828.600,328.918,594.982,240.857,-107.000,-34.570,-259.465,16.803,24.243,0,0,0,0,0,5.000
86314,-563,-559,7068,-103.471,-1.271,8094.157,819.139,335.230,607.564,-231.000,-59.429,-135.000,-94.607,63.120,125.825,0,0,0,0,0,5.000
86414,-691,-975,7293,-93.486,-20.843,8089.628,807.574,351.138,612.319,99.857,-195.714,-45.288,-115.654,159.078,47.547,0,0,0,0,0,5.000
86514,-129,-1056,7739,-104.114,-41.271,8091.500,803.063,368.730,611.043,-106.286,-204.286,18.716,-45.112,175.913,-12.761,0,0,0,0,0,5.000
86614,-848,-131,7030,-111.471,-48.957,8077.686,807.473,364.893,623.820,-73.571,-76.857,-138.145,44.103,-38.368,127.776,0,0,0,0,0,5.000
86714,-260,-371,8356,-125.914,-53.600,8080.043,800.932,366.888,624.555,-144.429,-46.429,23.574,-65.408,19.950,7.350,0,0,0,0,0,5.000
86814,-840,-590,8858,-134.714,-63.271,8085.886,805.333,371.942,629.870,-88.000,-96.714,58.428,44.013,50.545,53.148,0,0,0,0,0,5.000
86914,-863,-93,9497,-141.614,-68.757,8105.243,809.464,369.501,651.739,-69.000,-54.857,193.569,41.307,-24.418,218.684,0,0,0,0,0,5.000
87014,960,-703,9117,-139.986,-82.800,8119.914,811.561,374.623,662.698,16.286,-140.429,146.714,20.972,51.226,109.590,0,0,0,0,0,5.000
87114,-524,-692,9205,-146.986,-97.171,8138.243,812.729,378.402,674.606,-70.000,-143.714,183.286,11.681,37.794,119.081,0,0,0,0,0,5.000
87214,125,-386,8818,-147.100,-107.057,8143.500,812.691,376.776,678.438,-1.143,-98.857,52.573,-0.388,-16.262,38.318,0,0,0,0,0,5.000
87314,-412,69,5735,-150.786,-111.957,8111.714,813.298,372.197,735.973,-36.857,-49.000,-317.856,6.077,-45.797,575.353,0,0,0,0,0,5.000
87414,-125,252,7900,-169.800,-109.157,8107.257,796.746,374.181,736.297,-190.143,28.000,-44.570,-165.524,19.850,3.238,0,0,0,0,0,5.000
87514,-3603,-1012,6832,-220.229,-134.514,8104.128,894.713,374.362,741.227,-504.286,-253.571,-31.289,979.668,1.805,49.301,0,0,0,1,0,5.000
87614,2593,473,6266,-185.757,-133.471,8081.114,953.989,375.948,772.281,344.714,10.428,-230.142,592.762,15.859,310.543,0,0,0,0,0,5.000
87714,-73,-187,6919,-185.514,-141.029,8061.929,954.016,371.606,784.140,2.429,-75.571,-191.855,0.266,-43.419,118.588,0,0,0,0,0,5.000
87814,-2868,1650,7367,-250.129,-116.843,8045.286,979.987,428.012,786.347,-646.143,241.857,-166.431,259.713,564.060,22.065,1,0,0,0,0,5.000
87914,2219,-143,5864,-212.229,-121.057,8018.743,1022.521,426.795,827.112,379.000,-42.143,-265.430,425.341,-12.173,407.659,0,0,0,0,0,5.000
88014,-2937,-101,7110,-252.286,-121.000,8003.900,1072.342,426.797,833.936,-400.571,0.571,-148.428,498.212,0.024,68.237,0,0,0,0,0,5.000
88114,-466,165,7040,-263.614,-123.471,7988.300,1070.349,424.627,841.573,-113.286,-24.714,-156.001,-19.928,-21.697,76.366,0,0,0,0,0,5.000
88214,-156,-263,6023,-272.400,-129.029,7954.657,1066.900,423.871,871.849,-87.857,-55.571,-336.426,-34.490,-7.564,302.761,0,0,0,0,0,5.000
88314,-70,-535,7805,-284.457,-138.171,7952.414,1059.752,425.623,872.029,-120.572,-91.429,-22.432,-71.484,17.521,1.802,0,0,0,0,0,5.000
88414,-404,-611,8389,-289.686,-145.386,7955.686,1059.426,429.281,873.230,-52.285,-72.143,32.715,-3.260,36.577,12.013,0,0,0,0,0,5.000
88514,1141,-365,8852,-271.300,-151.571,7968.671,1072.843,429.281,879.680,183.857,-61.857,129.858,134.167,0.002,64.498,0,0,0,0,0,5.000
88614,-1139,-841,8184,-304.771,-161.457,7974.372,1062.795,437.006,879.764,-334.714,-98.857,57.002,-100.475,77.253,0.842,0,0,0,0,0,5.000
88714,-2115,-472,7261,-324.029,-169.500,7962.000,1083.016,437.467,883.611,-192.571,-80.429,-123.716,202.208,4.601,38.470,0,0,0,0,0,5.000
88814,-224,-2114,7935,-346.557,-205.657,7957.929,1064.134,489.051,883.070,-225.286,-361.572,-40.713,-188.818,515.848,-5.416,0,0,0,0,0,5.000
88914,1939,-571,7481,-310.600,-218.171,7943.372,1097.702,487.028,882.413,359.571,-125.143,-145.571,335.675,-20.236,-6.570,0,0,0,0,0,5.000
89014,-85,-656,7985,-317.771,-230.214,7945.786,1094.560,487.283,882.292,-71.714,-120.428,24.141,-31.417,2.548,-1.207,0,0,0,0,0,5.000
89114,-594,-503,7301,-318.800,-242.171,7932.986,1094.785,483.546,885.050,-10.286,-119.572,-127.998,2.252,-37.366,27.578,0,0,0,0,0,5.000
89214,-1904,-588,8836,-342.614,-253.100,7947.271,1110.761,482.593,891.417,-238.143,-109.286,142.856,159.758,-9.533,63.669,0,0,0,0,0,5.000
89314,-178,-1214,9809,-333.414,-271.757,7977.757,1109.418,494.001,917.687,92.000,-186.571,304.858,-13.427,114.080,262.706,0,0,0,0,0,5.000
89414,-1494,-1757,7760,-351.586,-303.586,7981.372,1117.830,516.387,916.323,-181.714,-318.286,36.143,84.119,223.867,-13.640,0,0,0,0,0,5.000
89514,-1206,-1437,8641,-368.729,-326.029,7996.829,1121.594,530.819,918.192,-171.429,-224.428,154.570,37.638,144.315,18.689,0,0,0,0,0,5.000
89614,492,821,6061,-370.243,-314.500,7970.372,1120.359,546.607,946.473,-15.143,115.286,-264.570,-12.354,157.881,282.808,0,0,0,0,0,5.000
89714,1701,-931,8513,-379.843,-317.529,7975.357,1099.496,549.420,948.397,-96.000,-30.286,49.854,-208.622,28.130,19.241,0,0,0,0,0,5.000
89814,-1880,-1259,10035,-376.986,-343.900,7989.229,1095.327,549.674,971.049,28.571,-263.714,138.716,-41.698,2.537,226.517,0,0,0,0,0,5.000
89914,962,-751,9761,-370.429,-355.429,8028.529,1101.929,549.628,986.174,65.572,-115.286,393.003,66.024,-0.454,151.248,0,0,0,0,0,5.000
90014,-1380,-505,9351,-380.671,-360.943,8041.229,1107.917,549.165,997.335,-102.429,-55.143,126.997,59.880,-4.636,111.617,0,0,0,0,0,5.000
90114,-2857,-924,10332,-420.400,-363.171,8024.829,1145.504,551.125,948.917,-397.286,-22.285,-163.999,375.865,19.604,-484.179,0,0,0,0,0,5.000
90214,977,-928,7798,-429.157,-378.171,8008.171,1132.369,552.004,942.497,-87.571,-150.000,-166.572,-131.346,8.792,-64.201,0,0,0,0,0,5.000
90314,378,-298,6746,-424.557,-386.414,7985.243,1134.981,546.409,953.339,46.000,-82.429,-229.287,26.125,-55.951,108.414,0,0,0,0,0,5.000
90414,-516,-1477,6562,-435.157,-410.957,7957.471,1132.318,556.173,965.995,-106.000,-245.429,-277.715,-26.636,97.635,126.566,0,0,0,0,0,5.000
90514,-1875,-866,6059,-462.157,-425.143,7930.514,1143.738,554.933,991.921,-270.000,-141.857,-269.570,114.199,-12.396,259.254,0,0,0,0,0,5.000
90614,4390,-1952,6682,-370.157,-454.157,7907.214,1264.907,580.330,1001.770,920.000,-290.143,-232.998,1211.688,253.964,98.489,0,0,0,0,0,5.000
90714,-2655,-829,6364,-416.800,-461.100,7885.086,1287.893,581.863,1018.368,-466.429,-69.429,-221.284,229.860,15.337,165.985,0,0,0,0,0,5.000
90814,990,-383,6752,-399.000,-464.871,7865.214,1298.558,580.488,1026.679,178.000,-37.714,-198.716,106.659,-13.756,83.109,0,0,0,0,0,5.000
90914,524,-1376,8815,-403.900,-482.714,7871.571,1294.413,588.962,1031.153,-49.000,-178.429,63.569,-41.459,84.742,44.738,0,0,0,0,0,5.000
91014,-1161,-281,9295,-414.771,-490.671,7887.557,1297.526,582.383,1044.338,-108.714,-79.571,159.858,31.135,-65.784,131.852,0,0,0,0,0,5.000
91114,653,-996,5929,-394.314,-504.657,7861.329,1302.900,582.596,1069.831,204.571,-139.857,-262.285,53.739,2.121,254.932,0,0,0,0,0,5.000
91214,-2881,-515,4981,-422.743,-511.329,7815.414,1334.748,579.996,1122.211,-284.286,-66.714,-459.146,318.483,-25.994,523.802,0,0,0,0,0,5.000
91314,-114,-1258,5962,-415.729,-522.629,7783.914,1335.062,586.689,1142.661,70.143,-113.000,-315.000,3.140,66.931,204.495,0,0,0,0,0,5.000
91414,-1587,-221,5893,-433.400,-522.143,7746.486,1342.243,586.925,1160.930,-176.714,4.857,-374.282,71.803,2.355,182.690,0,0,0,0,0,5.000
91514,42,-916,6072,-431.057,-531.986,7716.143,1342.927,587.669,1176.438,23.429,-98.428,-303.428,6.844,7.447,155.083,0,0,0,0,0,5.000
91614,954,-1051,7320,-403.214,-543.157,7705.200,1351.126,589.992,1176.509,278.428,-111.714,-109.429,81.986,23.228,0.713,0,0,0,0,0,5.000
91714,1501,-1318,8839,-378.071,-558.514,7713.914,1369.822,595.940,1182.600,251.429,-153.571,87.139,186.960,59.481,60.908,0,0,0,0,0,5.000
91814,-1681,-174,8472,-403.129,-553.700,7720.714,1377.363,597.663,1185.568,-250.571,48.143,68.003,75.413,17.231,29.673,0,0,0,0,0,5.000
91914,232,-772,7842,-384.329,-563.471,7712.843,1376.922,595.557,1182.904,188.000,-97.714,-78.716,-4.404,-21.060,-26.635,0,0,0,0,0,5.000
92014,133,-1603,9164,-389.543,-579.571,7732.357,1374.260,608.077,1195.350,-52.143,-161.000,195.142,-26.627,125.195,124.456,0,0,0,0,0,5.000
92114,706,-118,9911,-369.829,-577.700,7750.014,1379.924,609.292,1218.057,197.143,18.714,176.572,56.646,12.148,227.070,0,0,0,0,0,5.000
92214,-1931,98,8940,-386.886,-578.143,7763.600,1391.687,608.789,1225.925,-170.571,-4.429,135.859,117.626,-5.026,78.680,0,0,0,0,0,5.000
92314,40,-1534,9205,-379.886,-594.771,7770.829,1392.584,618.693,1232.891,70.000,-166.285,72.285,8.969,99.039,69.663,0,0,0,0,0,5.000
92414,-894,-1103,8883,-380.514,-598.071,7774.214,1392.806,620.775,1235.612,-6.286,-33.000,33.857,2.220,20.823,27.209,0,0,0,0,0,5.000
92514,1476,-682,8160,-352.600,-603.257,7784.343,1410.046,619.938,1235.827,279.143,-51.857,101.284,172.405,-8.372,2.150,0,0,0,0,0,5.000
92614,168,-201,7953,-324.957,-598.743,7802.314,1400.985,621.698,1228.983,276.429,45.143,179.717,-90.612,17.596,-68.440,0,0,0,0,0,5.000
92714,1074,-1110,8227,-319.700,-606.757,7818.400,1405.527,624.614,1227.066,52.571,-80.143,160.854,45.419,29.163,-19.170,0,0,0,0,0,5.000
92814,-1452,-661,9288,-328.129,-617.071,7832.214,1410.514,619.442,1238.041,-84.286,-103.143,138.145,49.871,-51.721,109.746,0,0,0,0,0,5.000
92914,1306,-385,9070,-314.714,-622.957,7856.743,1421.483,615.237,1245.291,134.143,-58.857,245.283,109.694,-42.046,72.505,0,0,0,0,0,5.000
93014,-488,296,8526,-315.857,-617.757,7853.671,1421.590,621.413,1243.370,-11.429,52.000,-30.713,1.066,61.757,-19.211,0,0,0,0,0,5.000
93114,-933,-1373,7969,-307.657,-632.414,7851.143,1416.342,626.929,1242.953,82.000,-146.572,-25.283,-52.484,55.164,-4.172,0,0,0,0,0,5.000
93214,-1387,-939,7415,-325.243,-639.886,7848.900,1421.980,627.422,1243.596,-175.857,-74.714,-22.432,56.389,4.926,6.432,0,0,0,0,0,5.000
93314,-97,-848,6908,-318.586,-644.014,7846.614,1421.943,627.827,1245.175,66.571,-41.285,-22.856,-0.380,4.048,15.791,0,0,0,0,0,5.000
93414,-246,-1257,7861,-312.229,-648.043,7854.729,1421.258,630.835,1243.390,63.571,-40.286,81.143,-6.848,30.085,-17.845,0,0,0,0,0,5.000
93514,69,-1130,7108,-309.400,-649.100,7845.714,1421.817,631.580,1246.480,28.286,-10.571,-90.142,5.590,7.444,30.898,0,0,0,0,0,5.000
93614,-895,-688,9249,-310.071,-657.057,7877.414,1422.082,628.503,1253.529,-6.714,-79.572,316.997,2.651,-30.764,70.483,0,0,0,0,0,5.000
93714,-1540,-1275,8323,-328.357,-669.971,7876.943,1429.530,631.772,1253.355,-182.857,-129.143,-4.712,74.485,32.686,-1.740,0,0,0,0,0,5.000
93814,195,-972,7508,-313.571,-675.429,7857.657,1429.515,632.707,1248.487,147.857,-54.572,-192.856,-0.156,9.348,-48.672,0,0,0,0,0,5.000
93914,-587,-1382,7628,-309.629,-693.843,7830.957,1428.374,634.243,1233.033,39.429,-184.142,-267.002,-11.409,15.367,-154.548,0,0,0,0,0,5.000
94014,-354,-851,8009,-328.400,-695.957,7815.128,1420.176,634.517,1223.497,-187.714,-21.143,-158.286,-81.980,2.737,-95.358,0,0,0,0,0,5.000
94114,-345,-955,8051,-325.843,-699.714,7798.643,1419.982,635.261,1212.382,25.571,-37.571,-164.854,-1.934,7.438,-111.144,0,0,0,0,0,5.000
94214,329,-1515,8589,-322.929,-715.843,7795.372,1421.114,641.394,1209.934,29.143,-161.285,-32.715,11.312,61.328,-24.486,0,0,0,0,0,5.000
94314,-516,-1182,8812,-324.414,-733.714,7839.329,1421.260,636.687,1190.012,-14.857,-178.715,439.570,1.465,-47.062,-199.220,0,0,0,0,0,5.000
94414,-189,-703,7841,-325.329,-747.357,7838.486,1421.152,625.554,1189.989,-9.143,-136.428,-8.428,-1.080,-111.334,-0.227,0,0,0,0,0,5.000
94514,-270,-1184,7621,-277.714,-749.814,7849.757,1365.276,626.925,1184.125,476.143,-24.572,112.715,-558.766,13.710,-58.644,0,0,0,0,0,5.000
94614,-531,-644,7286,-322.343,-765.771,7864.329,1321.050,609.573,1170.746,-446.286,-159.572,145.713,-442.253,-173.520,-133.784,0,0,0,0,0,5.000
94714,-437,-1226,8303,-327.543,-780.614,7884.100,1320.775,607.947,1166.293,-52.000,-148.428,197.715,-2.754,-16.262,-44.536,0,0,0,0,0,5.000
94814,-621,-1182,8152,-295.443,-821.071,7895.314,1285.475,534.664,1165.040,321.000,-404.572,112.144,-352.994,-732.827,-12.526,0,0,0,0,0,5.000
94914,-229,-757,7644,-330.414,-829.843,7920.743,1249.387,528.469,1139.574,-349.714,-87.714,254.282,-360.887,-61.954,-254.666,0,0,0,0,0,5.000
95014,-642,-855,7998,-297.629,-840.614,7933.429,1210.049,521.137,1135.413,327.857,-107.714,126.860,-393.380,-73.320,-41.608,0,0,0,0,0,5.000
95114,274,-1092,8470,-287.057,-858.571,7953.857,1211.763,507.658,1132.014,105.714,-179.572,204.282,17.141,-134.782,-33.992,0,0,0,0,0,5.000
95214,121,-700,7636,-283.100,-864.814,7976.900,1212.636,502.961,1108.651,39.571,-62.429,230.430,8.734,-46.970,-233.627,0,0,0,0,0,5.000
95314,-580,-761,8271,-290.386,-868.043,7983.557,1212.866,501.557,1108.998,-72.857,-32.286,66.572,2.300,-14.041,3.468,0,0,0,0,0,5.000
95414,-376,-586,7810,-289.986,-867.686,7975.286,1212.833,501.749,1108.102,4.000,3.571,-82.715,-0.331,1.918,-8.959,0,0,0,0,0,5.000
95514,-451,-1027,8469,-312.729,-877.143,7969.814,1200.651,498.413,1104.700,-227.429,-94.572,-54.712,-121.816,-33.362,-34.022,0,0,0,0,0,5.000
95614,-749,-934,8278,-307.157,-878.471,7971.157,1197.706,498.439,1105.016,55.714,-13.286,13.428,-29.457,0.258,3.167,0,0,0,0,0,5.000
95714,-1023,-977,8100,-291.557,-885.686,7983.143,1181.053,496.153,1101.794,156.000,-72.143,119.858,-166.527,-22.860,-32.223,0,0,0,0,0,5.000
95814,-278,-616,8042,-292.329,-864.286,7984.671,1181.026,474.547,1101.801,-7.715,214.000,15.283,-0.267,-216.057,0.065,0,0,0,0,0,5.000
95914,-525,-774,8028,-327.529,-867.186,7992.486,1150.318,473.365,1100.139,-352.000,-29.000,78.145,-307.083,-11.824,-16.616,0,0,0,0,0,5.000
96014,-639,-508,8188,-335.443,-865.071,7995.386,1150.528,474.632,1100.383,-79.143,21.143,28.999,2.097,12.674,2.440,0,0,0,0,0,5.000
96114,-507,-631,8228,-334.200,-866.900,8008.628,1150.295,473.479,1097.521,12.429,-18.286,132.427,-2.330,-11.532,-28.621,0,0,0,0,0,5.000
96214,-847,-490,8214,-319.100,-865.500,7999.743,1136.443,474.445,1093.296,151.000,14.000,-88.857,-138.516,9.662,-42.246,0,0,0,0,0,5.000
96314,-544,-602,8398,-324.329,-856.757,7979.586,1136.624,473.581,1072.564,-52.286,87.429,-201.567,1.807,-8.643,-207.324,0,0,0,0,0,5.000
96414,-264,-384,8047,-306.757,-837.143,7983.686,1127.879,464.230,1072.265,175.714,196.143,40.996,-87.444,-93.511,-2.987,0,0,0,0,0,5.000
96514,-967,-574,8053,-303.343,-824.814,7975.286,1125.511,459.572,1069.382,34.143,123.286,-83.999,-23.683,-46.581,-28.832,0,0,0,0,0,5.000
96614,-408,-420,7798,-316.200,-842.543,8000.100,1121.486,417.776,1044.539,-128.571,-177.286,248.145,-40.253,-417.953,-248.431,0,0,0,0,0,5.000
96714,-457,-100,7906,-347.029,-830.671,7991.429,1094.958,426.803,1042.763,-308.286,118.714,-86.714,-265.277,90.270,-17.758,0,0,0,0,0,5.000
96814,76,-670,8521,-319.086,-822.257,7969.800,1080.341,424.073,1015.497,279.428,84.143,-216.289,-146.168,-27.301,-272.664,0,0,0,0,0,5.000
96914,-581,-598,8204,-341.129,-820.071,7947.557,1069.666,424.828,992.818,-220.428,21.857,-222.427,-106.750,7.552,-226.784,0,0,0,0,0,5.000
97014,-949,-253,7788,-334.971,-816.471,7925.229,1064.899,428.535,978.476,61.571,36.000,-223.286,-47.677,37.062,-143.422,0,0,0,0,0,5.000
97114,-591,-441,8336,-302.600,-809.571,7896.714,1021.289,430.631,936.089,323.714,69.000,-285.142,-436.096,20.964,-423.872,0,0,0,0,0,5.000
97214,-467,-883,8318,-323.229,-808.929,7904.143,1009.753,430.487,937.338,-206.286,6.428,74.287,-115.363,-1.436,12.496,0,0,0,0,0,5.000
97314,-725,-434,8062,-338.986,-810.871,7922.943,1007.290,428.479,927.062,-157.571,-19.428,187.998,-24.623,-20.081,-102.762,0,0,0,0,0,5.000
97414,-382,-923,7526,-337.071,-802.957,7936.714,1007.079,421.156,913.808,19.143,79.142,137.715,-2.111,-73.232,-132.538,0,0,0,0,0,5.000
97514,202,-1458,8586,-307.400,-811.414,7972.814,991.812,428.222,888.480,296.714,-84.572,361.001,-152.674,70.658,-253.284,0,0,0,0,0,5.000
97614,-1713,-774,8230,-394.586,-794.586,7994.929,830.116,405.618,875.243,-871.857,168.286,221.143,-1616.964,-226.039,-132.374,0,0,0,0,0,5.000
97714,-199,-846,8099,-359.500,-794.829,8019.714,784.484,405.644,852.990,350.857,-2.429,247.856,-456.315,0.256,-222.531,0,0,0,0,0,5.000
97814,-218,-783,7991,-376.757,-800.543,8037.414,767.715,402.608,839.244,-172.571,-57.143,176.997,-167.690,-30.356,-137.452,0,0,0,0,0,5.000
97914,-665,-456,7607,-393.743,-787.400,8020.157,760.720,398.605,835.489,-169.857,131.428,-172.568,-69.955,-40.035,-37.550,0,0,0,0,0,5.000
98014,-310,-1172,7665,-381.586,-800.129,7996.872,755.140,396.451,822.243,121.571,-127.286,-232.856,-55.792,-21.537,-132.458,0,0,0,0,0,5.000
98114,-362,-745,7762,-396.086,-796.543,8023.057,744.809,395.798,784.283,-145.000,35.858,261.855,-103.309,-6.532,-379.607,0,0,0,0,0,5.000
98214,-422,-991,7576,-360.957,-803.343,8060.128,682.133,394.990,695.973,351.286,-68.000,370.713,-626.766,-8.074,-883.096,0,0,0,0,0,5.000
98314,-1460,-1409,7563,-380.186,-805.500,8083.000,693.772,397.869,651.535,-192.285,-21.572,228.716,116.393,28.787,-444.382,0,0,0,0,0,5.000
98414,-937,-1250,7944,-370.900,-820.200,8112.300,681.804,395.001,596.154,92.857,-147.000,292.998,-119.678,-28.680,-553.806,0,0,0,0,0,5.000
98514,-326,-1609,8351,-376.157,-830.100,8144.857,680.017,405.814,543.770,-52.571,-99.000,325.571,-17.877,108.134,-523.849,0,0,0,0,0,5.000
98614,-509,-1161,8132,-397.057,-831.671,8156.457,661.031,406.878,534.634,-209.000,-15.715,116.001,-189.855,10.640,-91.358,0,0,0,0,0,5.000
98714,-781,-1155,8196,-429.657,-829.343,8147.271,621.723,404.548,528.314,-326.000,23.286,-91.855,-393.083,-23.302,-63.195,0,0,0,0,0,5.000
98814,-607,-1629,8299,-414.314,-850.129,8144.800,603.642,407.709,527.193,153.428,-207.858,-24.717,-180.808,31.612,-11.214,0,0,0,0,0,5.000
98914,-423,-1411,8256,-423.671,-859.257,8150.714,598.606,412.977,526.084,-93.571,-91.285,59.146,-50.356,52.680,-11.091,0,0,0,0,0,5.000
99014,-205,-1165,8061,-428.500,-853.000,8134.957,595.451,404.900,511.823,-48.286,62.571,-157.573,-31.550,-80.769,-142.606,0,0,0,0,0,5.000
99114,-237,-1320,7672,-441.971,-870.171,8102.971,580.102,398.808,467.910,-134.714,-171.714,-319.858,-153.497,-60.927,-439.129,0,0,0,0,0,5.000
99214,-377,-1575,7488,-419.771,-894.071,8082.229,551.735,390.106,462.497,222.000,-239.000,-207.427,-283.671,-87.020,-54.132,0,0,0,0,0,5.000
99314,-333,-1279,7536,-425.100,-890.429,8058.386,549.063,385.274,446.754,-53.286,36.428,-238.428,-26.714,-48.320,-157.436,0,0,0,0,0,5.000
99414,16,-1391,7963,-412.100,-894.543,8045.243,548.580,389.041,435.697,130.000,-41.143,-131.431,-4.833,37.674,-110.565,0,0,0,0,0,5.000
99514,-163,-1494,8406,-435.514,-906.143,8048.757,500.351,394.597,437.596,-234.143,-116.000,35.146,-482.293,55.557,18.994,0,0,0,0,0,5.000
99614,-167,-1301,8107,-440.300,-921.857,8050.957,496.140,388.051,437.497,-47.857,-157.142,21.997,-42.110,-65.455,-0.998,0,0,0,0,0,5.000
99714,-207,-1376,7897,-458.600,-925.657,8046.243,462.427,391.165,437.352,-183.000,-38.000,-47.144,-337.128,31.137,-1.445,0,0,0,0,0,5.000
99814,-466,-1318,8183,-444.514,-935.043,8030.457,446.703,392.582,411.421,140.857,-93.857,-157.856,-157.243,14.167,-259.315,0,0,0,0,0,5.000
99914,-795,-763,7885,-474.529,-940.443,8013.529,395.754,387.546,392.230,-300.143,-54.000,-169.282,-509.482,-50.356,-191.901,0,0,0,0,0,5.000
100014,-815,-420,7753,-479.200,-950.671,8002.486,397.810,363.479,388.511,-46.714,-102.286,-110.430,20.560,-240.672,-37.197,0,0,0,0,0,5.000
100114,-666,-706,8191,-475.386,-941.143,8005.657,394.709,361.017,389.130,38.143,95.286,31.714,-31.015,-24.619,6.193,0,0,0,0,0,5.000
100214,-642,-581,8098,-464.743,-936.029,8015.414,379.745,363.538,382.707,106.429,51.143,97.568,-149.637,25.211,-64.228,0,0,0,0,0,5.000
100314,-753,-943,8193,-474.114,-937.386,8033.771,378.647,363.384,359.248,-93.714,-13.572,183.574,-10.980,-1.538,-234.596,0,0,0,0,0,5.000
100414,-523,-1267,8194,-478.071,-937.529,8038.529,377.689,363.512,359.133,-39.572,-1.428,47.573,-9.585,1.276,-1.146,0,0,0,0,0,5.000
100514,-843,-1393,8151,-491.100,-941.286,8053.429,374.307,366.826,341.417,-130.286,-37.571,148.999,-33.814,33.140,-177.161,0,0,0,0,0,5.000
100614,-893,-1000,7920,-491.071,-945.743,8034.443,374.277,365.614,309.902,0.286,-44.572,-189.858,-0.308,-12.112,-315.145,0,0,0,0,0,5.000
100714,-589,154,7738,-477.486,-925.329,8026.086,352.587,385.987,309.896,135.857,204.143,-83.569,-216.897,203.727,-0.064,0,0,0,0,0,5.000
100814,-706,372,7754,-490.357,-906.129,8029.600,344.147,415.488,305.363,-128.714,192.000,35.142,-84.397,295.006,-45.334,0,0,0,0,0,5.000
100914,-852,-234,7786,-494.143,-889.729,8031.857,346.638,419.022,302.960,-37.857,164.000,22.568,24.907,35.345,-24.023,0,0,0,0,0,5.000
101014,-618,-326,8053,-497.914,-882.229,8032.486,346.529,424.313,302.958,-37.714,75.000,6.289,-1.091,52.911,-0.024,0,0,0,0,0,5.000
101114,-473,291,8265,-499.743,-864.429,8035.543,346.055,446.445,304.206,-18.286,178.000,30.571,-4.743,221.317,12.485,0,0,0,0,0,5.000
101214,-904,385,8248,-517.357,-837.286,8030.671,334.614,463.499,297.971,-176.143,271.429,-48.716,-114.406,170.537,-62.354,0,0,0,0,0,5.000
101314,-927,285,7878,-523.229,-816.329,8017.329,338.126,480.300,283.232,-58.715,209.572,-133.428,35.121,168.008,-147.386,0,0,0,0,0,5.000
101414,-386,-149,8381,-526.043,-808.414,8025.043,336.146,486.624,285.668,-28.143,79.142,77.144,-19.795,63.249,24.358,0,0,0,0,0,5.000
101514,-822,159,7854,-533.929,-789.229,8028.372,336.522,497.785,282.278,-78.857,191.857,33.286,3.755,111.606,-33.899,0,0,0,0,0,5.000
101614,-813,163,7565,-537.957,-777.700,8032.357,338.147,510.205,273.604,-40.286,115.286,39.854,16.248,124.199,-86.739,0,0,0,0,0,5.000
101714,-681,-63,8077,-541.443,-761.086,8029.128,338.346,514.256,271.719,-34.857,166.143,-32.285,1.989,40.510,-18.857,0,0,0,0,0,5.000
101814,-662,-284,8140,-542.029,-748.257,8028.957,338.518,514.796,271.645,-5.857,128.286,-1.714,1.728,5.403,-0.738,0,0,0,0,0,5.000
101914,-706,-24,7865,-548.843,-737.786,8032.114,336.946,521.918,268.418,-68.143,104.714,31.572,-15.725,71.214,-32.274,0,0,0,0,0,5.000
102014,-713,118,8001,-549.857,-723.886,8032.157,337.331,531.480,268.412,-10.143,139.000,0.430,3.855,95.623,-0.051,0,0,0,0,0,5.000
102114,-688,-73,8355,-563.600,-709.329,8030.514,322.769,535.140,266.069,-137.429,145.572,-16.431,-145.622,36.605,-23.433,0,0,0,0,0,5.000
102214,-826,1,7927,-577.129,-699.314,8034.671,313.505,541.740,262.117,-135.286,100.143,41.572,-92.646,65.992,-39.525,0,0,0,0,0,5.000
102314,-850,114,7817,-580.986,-686.814,8028.186,315.173,550.201,261.805,-38.571,125.000,-64.858,16.681,84.612,-3.112,0,0,0,0,0,5.000
102414,-487,84,8186,-582.571,-677.243,8033.557,314.416,557.649,261.130,-15.857,95.714,53.716,-7.569,74.479,-6.753,0,0,0,0,0,5.000
102514,-677,170,8074,-585.800,-660.143,8027.914,314.208,564.966,255.874,-32.286,171.000,-56.431,-2.073,73.173,-52.557,0,0,0,0,0,5.000
102614,-1016,-98,7823,-589.614,-648.200,8021.414,317.767,567.879,255.217,-38.143,119.429,-65.000,35.584,29.133,-6.572,0,0,0,0,0,5.000
102714,-767,51,7881,-585.957,-633.514,8018.286,314.211,572.460,255.577,36.571,146.857,-31.284,-35.556,45.811,3.596,0,0,0,0,0,5.000
102814,-616,-45,8196,-590.786,-625.357,8020.486,312.031,576.704,256.433,-48.286,81.572,22.002,-21.801,42.438,8.560,0,0,0,0,0,5.000
102914,-741,46,8006,-593.871,-613.643,8020.171,312.433,581.871,256.437,-30.857,117.142,-3.145,4.019,51.667,0.041,0,0,0,0,0,5.000
