aX,aY,aZ,gX,gY,gZ,mX,mY,mZ,lb
-2241,-361,7533,75,85,102,-37,-5538,-15684,0
-2266,-382,7689,78,44,98,4,-5484,-15591,0
-2258,-312,7499,107,-24,119,-29,-5476,-15582,0
-2392,-357,7594,166,-10,68,-83,-5450,-15489,0
-2348,-335,7464,182,44,68,-75,-5372,-15473,0
-2261,-456,7517,145,149,4,-88,-5352,-15418,0
-2235,-385,7607,170,62,111,-54,-5336,-15407,0
-2135,-291,7679,181,258,186,-51,-5338,-15378,0
-2350,-474,7687,169,273,-27,15,-5390,-15413,0
-2081,-157,7661,88,524,34,37,-5403,-15404,0
-2168,-370,7685,121,142,159,-6,-5442,-15367,0
-2013,-390,7755,211,-105,162,17,-5452,-15378,0
-2103,-357,7619,128,-243,64,20,-5464,-15343,0
-2188,-414,7614,70,-72,44,56,-5449,-15356,0
-2353,-241,7933,-53,-173,-3,61,-5374,-15369,0
-2070,-279,7648,97,292,4,40,-5335,-15344,0
-2115,-442,7442,53,95,90,-67,-5237,-15334,0
-2009,-327,7450,29,66,74,-85,-5235,-15334,0
-2074,-249,7754,30,-62,47,-74,-5286,-15293,0
-2061,-182,7696,58,-247,91,-142,-5216,-15249,0
-2052,-326,7722,91,444,262,-158,-5210,-15298,0
-1969,-343,7884,444,1266,4,-168,-5194,-15275,0
-1645,-199,7698,542,1129,136,-216,-4958,-15138,0
-1512,-691,8029,595,990,220,-426,-4808,-15063,0
-902,-832,7660,874,938,85,-549,-4725,-15013,0
-669,-1371,7113,1733,970,-80,-522,-4458,-14686,0
-640,-867,8138,2235,1218,-73,-555,-4135,-14434,0
-560,-1102,8114,1191,604,249,-560,-3936,-14229,0
-438,-1585,8462,391,201,805,-430,-4042,-14154,0
-844,-1813,7909,-645,67,790,-340,-4257,-14102,0
-228,-1645,7359,-1068,181,1683,-333,-4447,-14241,0
-634,-1372,8070,-1366,-302,991,-249,-4725,-14368,0
-557,-614,6987,-1630,-167,-856,-311,-4772,-14585,0
-803,-896,6993,-665,-593,-1041,-286,-4762,-14792,0
-215,-686,7107,257,-626,-1389,-314,-4683,-14977,0
-1461,319,6730,1451,-1777,1957,-655,-4394,-15112,0
497,-1455,7499,1091,72,-2582,-239,-4463,-15113,0
566,-1800,7746,2161,853,2483,-304,-4212,-14970,0
790,-1376,7799,1521,1978,1672,-425,-4356,-14818,0
-196,-1715,7529,1686,1908,2153,-569,-4397,-14523,0
77,-1620,8265,1085,1045,1815,-526,-4532,-14424,0
-415,-1253,8082,-491,362,1268,-506,-4672,-14338,0
-369,-1109,7470,-1958,-540,-364,-597,-4763,-14421,0
-120,-1319,7891,-2800,-995,-3128,-719,-4894,-14519,0
512,-2064,7906,-2689,-647,-4931,-817,-4914,-14624,0
1254,-3002,7467,-1031,1405,-2743,-332,-5335,-14457,0
-505,-552,7293,137,2071,-5846,-717,-4784,-14390,0
-2402,1016,8491,1452,578,-3259,-1413,-4014,-14394,0
-423,-127,7413,347,-1225,-5094,-1524,-3690,-14409,0
1548,-493,7418,-517,-2099,1361,-1384,-4228,-14546,0
2257,1581,3995,-791,1527,-1220,-1732,-3204,-15761,0
-243,-300,8509,-425,-34,-390,-2183,-2405,-16223,0
260,-30,8165,471,-324,-776,-2216,-2457,-16081,0
-954,-254,8226,786,-470,-1829,-2562,-2205,-16128,0
-425,-11,8322,368,80,-2801,-2752,-2021,-16132,0
800,-237,8315,381,435,-4872,-3045,-1758,-16000,0
322,-494,8183,-157,523,-4652,-3294,-1793,-15216,0
-957,-561,8284,677,954,-3718,-3373,-2348,-14137,0
-2697,-604,8658,-511,426,-769,-3543,-2795,-13638,0
975,24,7786,-121,540,806,-3171,-3327,-13534,0
291,0,8034,-71,897,597,-3195,-3325,-13465,0
123,127,8197,122,212,148,-3104,-3420,-13427,0
838,126,7659,-31,1198,199,-2690,-3617,-13461,0
1565,254,6930,-69,1564,290,-2438,-3650,-13743,0
1001,243,7848,159,84,314,-2360,-3724,-13737,0
554,-146,8091,324,-1668,808,-2473,-3824,-13514,0
-872,-123,9009,543,-3111,812,-2984,-3640,-12855,0
-369,-220,7629,328,-74,28,-3631,-2434,-12886,0
-391,-268,8037,384,-16,-114,-3934,-1825,-12986,0
-229,-337,8005,-121,420,-400,-4334,-997,-13131,0
-1,-346,7914,-320,370,-358,-4786,-501,-13329,0
-311,-249,8179,8,-99,-92,-5140,-148,-13430,0
7,-168,7947,129,-2,31,-5295,87,-13355,0
-145,-248,8098,92,-181,90,-5440,277,-13358,0
245,-422,8114,-184,-443,148,-5504,428,-13435,0
-183,-223,8082,310,-84,133,-5676,509,-13639,0
-398,101,7985,31,63,113,-5797,589,-13599,0
-528,-38,7992,360,-127,101,-5801,635,-13525,0
-422,62,7919,142,-64,106,-5790,643,-13593,0
-460,103,7817,101,-44,105,-5786,593,-13683,0
-507,16,7973,89,-66,109,-5761,564,-13825,0
-411,91,7939,102,-71,99,-5803,493,-13920,0
-324,84,7916,37,-75,98,-5800,490,-14006,0
-200,41,7938,213,-44,181,-5798,327,-14436,0
-542,16,7871,168,-98,711,-5884,17,-15023,0
-72,330,7509,20,38,106,-5837,5,-15001,0
-230,73,7693,47,11,102,-5954,19,-14967,0
-303,9,7800,103,81,102,-5968,85,-14923,0
-179,62,7893,171,16,92,-6010,59,-14885,0
-358,75,7746,198,79,99,-6033,85,-14860,0
-283,13,7797,161,58,92,-6032,108,-14870,0
-129,-124,8049,100,-3,87,-6008,134,-14836,0
-192,-103,7921,106,56,95,-6042,141,-14808,0
-209,-62,8055,64,-49,114,-6057,159,-14819,0
-190,-39,7964,60,77,90,-6062,174,-14749,0
-189,-48,8371,460,312,77,-6030,320,-14675,0
-168,-66,8423,83,127,68,-6011,306,-14719,0
-142,-17,8299,110,87,87,-5971,283,-14692,0
-475,-233,9379,238,36,90,-5986,309,-14690,0
-94,-25,8140,47,-15,100,-5962,359,-14624,0
-192,-178,8416,91,-11,87,-5986,340,-14654,0
-193,-276,8365,70,202,22,-6003,340,-14620,0
-180,15,7651,265,114,44,-5960,387,-14601,0
-461,-112,8303,81,17,83,-5959,375,-14516,0
-306,-64,7449,361,65,77,-5936,444,-14413,0
-203,-67,8128,-20,93,77,-5973,407,-14448,0
-423,-247,8871,-27,51,118,-6008,362,-14510,0
-1058,-5,8041,242,-138,93,-6036,315,-14466,0
-199,58,8119,210,-153,66,-6041,346,-14569,0
-724,-39,5913,419,155,-23,-5815,595,-14396,0
208,-286,7929,42,-84,28,-5793,518,-14465,0
-264,-350,8002,40,169,120,-5911,432,-14524,0
-509,-152,8495,37,21,100,-5844,467,-14536,0
-372,47,7694,150,-36,66,-5863,454,-14653,0
-276,-93,7913,53,119,100,-5858,410,-14651,0
-533,-141,8292,74,34,107,-5897,410,-14568,0
-295,63,7716,142,66,95,-5893,433,-14590,0
-347,-2,8387,55,93,94,-5999,575,-14429,0
-325,38,7424,136,98,85,-5999,620,-14308,0
-507,201,8555,-247,-38,54,-5654,649,-14166,0
-1167,-103,8661,436,-370,-1612,-5140,635,-14009,0
-1699,-27,7199,712,-679,-3203,-4935,591,-13699,0
-211,-307,7311,-24,256,-395,-4963,460,-13571,0
2195,749,9347,-844,2367,397,-5002,649,-14177,0
-301,449,8212,346,-980,-2338,-4794,383,-14178,0
-676,643,8094,382,-293,950,-4900,361,-14160,0
-2027,-275,8312,885,-942,222,-4609,301,-14256,0
-496,53,8167,305,-872,481,-4339,157,-14506,0
543,-689,8174,373,-27,400,-4225,150,-14808,0
-816,-614,8363,344,129,119,-4282,198,-14734,0
-624,-247,8141,43,178,139,-4616,133,-15143,0
-919,-247,8652,161,19,54,-5193,289,-15723,0
-512,-227,7921,165,141,124,-5572,305,-16043,0
-651,-283,8010,174,41,101,-5594,338,-16169,0
-644,-327,7903,72,46,106,-5746,286,-16410,0
-527,-421,8094,166,41,88,-5793,296,-16507,0
-626,-239,7953,82,-5,92,-5832,287,-16567,0
-656,-177,7978,42,-10,60,-5892,314,-16563,0
-592,-304,8091,204,59,19,-5897,326,-16469,0
-574,-152,8137,180,279,-618,-5989,295,-16302,0
-127,458,7952,-556,153,-1620,-6332,164,-15768,0
-383,394,8122,-142,135,18,-6162,262,-15663,0
-423,603,7420,258,28,-218,-5919,305,-15436,0
-784,754,7681,-147,97,-428,-5650,276,-15187,0
-409,987,7633,38,111,-117,-5472,275,-15072,0
-158,1255,8095,-33,441,221,-5406,229,-15062,0
816,1625,7881,170,262,437,-5420,98,-15180,0
-917,1828,8395,-98,-388,44,-5493,133,-15192,0
-497,979,8224,233,-75,85,-5583,200,-15292,0
-507,201,7595,460,-18,134,-5755,178,-15633,0
-577,-320,7720,334,-95,169,-5878,143,-15708,0
-241,-71,7839,216,226,143,-5915,98,-15788,0
-808,19,7742,107,-96,133,-5925,121,-15863,0
-285,606,7342,-125,22,98,-6014,100,-15897,0
-974,1349,7984,-276,53,39,-6024,90,-15899,0
-716,1682,8063,-188,252,63,-6017,73,-15904,0
-787,1240,8225,78,193,145,-6066,127,-15939,0
-18,1024,7635,132,218,61,-6081,98,-15991,0
-32,909,8202,245,173,78,-6024,86,-15948,0
-659,-790,8463,591,-67,93,-5998,104,-15920,0
-255,270,7855,542,62,207,-6038,92,-16005,0
-596,-899,7903,516,-308,225,-6027,111,-16068,0
-463,-47,7473,-158,6,126,-6059,95,-16007,0
-386,86,8688,-215,57,29,-5966,182,-15887,0
-557,-148,8255,35,-34,-123,-5846,182,-15775,0
-25,-2,7526,-99,227,-89,-5797,182,-15783,0
-276,-59,8234,173,100,-145,-5672,255,-15599,0
-20,-183,8241,213,151,-16,-5661,314,-15520,0
-307,-5,8056,225,-102,151,-5631,316,-15364,0
-273,-129,8174,325,-78,203,-5595,347,-15311,0
-353,-68,7726,159,-45,117,-5589,331,-15225,0
20,55,7931,-118,82,-2,-5464,362,-15122,0
-2129,232,8383,-144,-332,-2841,-5637,170,-14770,0
1105,2564,8139,-241,-178,-540,-6000,-59,-14985,0
150,1011,7303,141,-91,1323,-5997,-9,-15056,0
-1008,364,7699,655,196,1033,-5860,-49,-15054,0
-478,912,7371,434,547,1634,-5755,-174,-15243,0
395,810,7654,131,1000,1129,-5493,-170,-15205,0
277,820,9491,-54,799,174,-5541,-21,-15190,0
-529,506,9104,229,164,567,-5693,57,-15025,0
-376,365,8112,292,291,-210,-5915,106,-15204,0
-629,431,7593,45,-108,-707,-6172,247,-15386,0
-690,175,8268,460,152,111,-6266,255,-15479,0
-70,-178,8181,156,-252,114,-6339,356,-15547,0
-503,-185,8424,320,3,104,-6369,378,-15533,0
-755,-123,7200,-3,-146,114,-6407,362,-15711,0
-633,-157,7777,38,104,78,-6435,439,-15744,0
-830,-189,7228,-31,246,151,-6539,524,-15720,0
-633,-723,9224,259,281,82,-6575,463,-15678,0
-246,-505,8169,258,288,248,-6453,467,-15537,0
-485,-6,7721,219,499,1415,-6265,413,-15391,0
-785,296,7487,181,98,1223,-6097,329,-15600,0
249,160,7428,39,289,110,-6132,380,-15687,0
-548,-183,9154,43,-164,31,-6319,321,-15892,0
-1020,-310,7767,184,-305,42,-6454,357,-16041,0
-290,720,7243,-239,165,-23,-6483,420,-16057,0
-504,939,8325,-48,187,31,-6563,361,-16023,0
-950,196,8610,195,-59,72,-6566,327,-16083,0
-443,-121,8106,203,123,162,-6575,276,-16047,0
-189,-245,7674,368,361,98,-6490,294,-16021,0
10,446,7497,-18,-80,30,-6470,294,-16016,0
-416,449,8953,-166,387,66,-6546,230,-16091,0
-753,233,8752,58,-389,18,-6614,248,-16202,0
-322,101,8351,228,-37,85,-6619,354,-16131,0
-357,269,7163,189,20,90,-6653,359,-16099,0
-134,146,7877,224,89,113,-6621,357,-16064,0
-873,-182,8200,273,-9,123,-6583,333,-16056,0
-300,175,8406,69,139,193,-6598,344,-16135,0
-1066,944,7290,-119,-284,157,-6664,312,-16118,0
407,888,7095,-133,874,326,-6623,245,-16237,0
-1388,1740,9005,-158,-111,255,-6673,305,-16252,0
1326,98,8887,959,726,522,-6640,345,-16173,0
-1534,2476,7798,-295,283,477,-6717,389,-15868,0
983,1566,7849,-92,-502,408,-6770,413,-15816,0
494,374,8138,554,-217,560,-6756,462,-15816,0
573,731,9033,522,-175,429,-6715,452,-15876,0
359,86,10306,918,305,446,-6797,591,-15737,0
-572,445,9776,-1213,199,236,-6902,781,-15584,0
-1515,393,7101,327,180,511,-6892,633,-15630,0
-1571,-390,7272,733,-255,326,-6816,673,-15606,0
-1286,-258,5925,830,1493,349,-6806,686,-15493,0
-1388,462,7350,-897,-271,134,-6844,687,-15606,0
-447,-614,9097,365,1,175,-6875,717,-15605,0
-104,537,7066,-89,-359,103,-6926,783,-15583,0
-1277,-468,7472,429,-577,93,-6845,828,-15581,0
-214,-310,7422,17,-48,103,-6858,805,-15541,0
-797,54,6619,339,-80,21,-6854,856,-15523,0
-699,-265,8767,-407,90,53,-6977,839,-15589,0
-396,-162,8263,46,251,90,-7032,808,-15601,0
-412,17,8057,150,280,58,-6950,716,-15550,0
-752,5,7684,216,71,29,-6927,774,-15503,0
364,1438,6900,197,-9,191,-6940,706,-15672,0
-613,1510,7034,44,9,162,-6864,843,-15637,0
-216,190,10693,253,175,80,-6853,917,-15542,0
-263,987,7322,-95,35,73,-6915,940,-15518,0
-816,1361,5955,554,-92,161,-6895,911,-15566,0
-351,1161,7219,-74,41,176,-6910,958,-15684,0
-163,711,8704,-182,94,164,-6969,988,-15543,0
-508,700,8321,62,-86,173,-7054,898,-15533,0
-812,1103,7816,124,-45,140,-7105,824,-15671,0
-775,938,7519,-8,45,150,-7053,766,-15698,0
-600,1063,8329,162,46,183,-7063,830,-15678,0
-131,1124,7528,127,141,80,-7030,888,-15599,0
-600,657,7794,158,-109,49,-6995,788,-15665,0
-765,1144,8405,155,92,84,-6973,767,-15837,0
-901,1342,7781,226,103,13,-6992,815,-15907,0
-633,1190,8152,194,-39,-16,-6986,794,-15827,0
-520,1230,7967,95,108,13,-6954,773,-15924,0
-1178,-432,8814,693,-248,7,-6936,711,-15956,0
-1200,-468,7434,338,-331,-159,-6907,914,-15788,0
-274,258,7693,261,153,-151,-6891,818,-15891,0
-920,-199,9045,179,-84,-54,-6951,787,-16043,0
-947,-258,8334,-25,-70,-29,-6915,773,-16109,0
-1023,-664,7697,171,-76,-98,-6808,792,-16141,0
-661,-311,7198,80,384,-119,-6742,670,-16319,0
-991,-115,9008,137,223,-101,-6772,641,-16444,0
-840,-189,8794,127,114,-65,-6808,721,-16443,0
-312,1787,6025,356,-16,-46,-6832,626,-16434,0
-1359,2591,8087,-68,-506,65,-6858,544,-16543,0
-1083,-780,8408,1402,441,100,-6713,611,-16496,0
-1462,-931,9371,918,-280,22,-6809,653,-16476,0
9,1243,7699,-35,372,28,-6835,605,-16569,0
-502,441,7529,-43,40,-53,-6765,589,-16554,0
-1693,274,7556,208,-7,151,-6756,633,-16562,0
-811,723,9062,-149,-144,95,-6724,566,-16522,0
-1268,-401,10868,1304,241,0,-6757,511,-16521,0
-637,1385,8990,-953,317,-25,-6756,493,-16588,0
-1148,1011,8024,544,-86,-60,-6697,465,-16540,0
716,320,6476,1147,495,366,-6398,313,-16717,0
-205,-85,6326,-391,-1939,322,-6257,401,-16681,0
-198,1455,7578,-348,4,101,-6201,330,-16662,0
116,122,10068,-29,-482,29,-6502,327,-16793,0
-460,448,10094,-44,-267,-29,-6703,420,-16669,0
-1417,-312,6876,452,393,-211,-6748,577,-16407,0
-936,502,6845,253,-93,-90,-6695,601,-16372,0
-621,665,7167,317,14,8,-6833,596,-16395,0
-393,338,9110,349,-172,86,-6901,641,-16336,0
-663,709,7791,85,-125,160,-6966,596,-16400,0
-1002,617,8094,511,-22,68,-6966,676,-16388,0
-1214,781,7462,-25,-527,80,-6954,630,-16247,0
-110,115,7717,298,-72,140,-7010,581,-16432,0
-491,776,7947,236,310,115,-7049,644,-16371,0
-2496,129,6934,410,-717,104,-6969,599,-16390,0
376,605,8997,13,687,159,-6980,511,-16449,0
-1662,810,7446,358,-323,-25,-6998,632,-16413,0
214,482,8026,145,205,125,-6980,621,-16469,0
-1131,205,7879,295,-37,169,-7020,625,-16526,0
-747,797,7877,231,-331,-50,-6990,565,-16480,0
-13,591,8155,433,69,148,-7024,462,-16562,0
214,600,6376,-156,369,142,-7066,549,-16495,0
-552,454,7048,47,-138,53,-7017,490,-16496,0
-920,502,8545,-190,192,149,-7069,494,-16592,0
-2023,125,9585,669,-633,157,-7114,481,-16409,0
1505,-112,9741,77,2696,215,-7138,525,-16484,0
-1995,639,7326,-224,-855,60,-7097,605,-16424,0
1169,-19,7080,451,863,263,-7024,561,-16490,0
-1008,404,10027,14,-162,95,-7098,574,-16547,0
-619,119,10863,323,-299,164,-7060,572,-16445,0
18,-20,6478,500,203,176,-7082,588,-16558,0
-359,30,6617,-33,-426,127,-7108,638,-16446,0
-548,-178,6276,-165,-443,149,-7083,618,-16514,0
-774,83,9564,-48,486,101,-7129,632,-16585,0
-1352,-9,11068,170,46,98,-7118,553,-16546,0
-654,201,8753,487,-6,83,-7128,559,-16663,0
11,63,4535,830,130,-5,-7105,623,-16558,0
-50,558,3806,-76,-205,-68,-7072,638,-16596,0
-3103,411,11040,-592,-1668,-195,-7187,665,-16497,0
-116,-1353,13549,1368,1784,94,-7251,541,-16649,0
-1321,726,13696,-3651,-387,-94,-7294,584,-16716,0
-373,1427,4861,43,-254,-206,-7256,591,-16582,0
-2449,539,4266,-583,-633,-109,-7212,558,-16631,0
1563,95,4993,-415,220,-8,-7206,577,-16650,0
-3325,-292,12460,692,-64,-68,-7321,459,-16670,0
-883,-658,11225,1441,21,-107,-7418,584,-16547,0
-440,814,4190,-929,449,-117,-7273,594,-16566,0
-558,781,6004,-380,405,-66,-7241,545,-16668,0
-3617,871,7785,131,108,-413,-7313,534,-16625,0
3873,509,9780,448,1296,210,-7427,463,-16939,0
-690,1778,7875,-106,1390,212,-7396,494,-16759,0
-2276,53,7638,190,-403,64,-7324,499,-16794,0
-1471,-83,6638,591,-73,80,-7274,531,-16738,0
-71,664,9091,237,287,42,-7296,478,-16864,0
195,180,7940,219,3,140,-7285,529,-16791,0
0,-668,8497,718,232,176,-7304,520,-16887,0
1368,183,8501,-288,1220,158,-7328,576,-16841,0
-797,748,7678,-171,-1384,88,-7231,499,-16896,0
-667,514,8140,600,1203,255,-7288,487,-16842,0
-2036,-151,9316,75,-1148,-6,-7217,536,-16855,0
-74,333,11396,248,945,183,-7325,546,-16865,0
-789,-849,7808,1077,268,90,-7252,513,-16872,0
-1485,-1990,6036,1241,204,310,-7218,565,-16794,0
428,-811,5910,-386,1015,269,-7178,607,-16793,0
3617,-286,9502,-2072,5932,543,-7415,709,-16875,0
7,3090,6609,-3386,-2257,-101,-7452,686,-16848,0
12,1450,3498,1185,-1024,225,-7388,635,-16677,0
-2796,-1469,5001,1080,-1042,59,-7301,664,-16559,0
-949,-945,7650,-722,333,118,-7367,759,-16717,0
217,-88,8174,-357,958,246,-7354,703,-16698,0
-823,363,8382,58,-33,131,-7426,741,-16747,0
-1456,-33,8429,-15,-241,195,-7324,763,-16692,0
253,-7,6405,316,-725,254,-7324,739,-16779,0
-2751,-1215,8444,565,-912,59,-7296,794,-16583,0
-193,-171,8450,19,-1525,159,-7288,721,-16820,0
-1926,-1036,4879,2211,-147,474,-7381,741,-16573,0
471,-24,8842,-881,82,119,-7295,655,-16823,0
-916,-606,7508,329,-1219,203,-7327,761,-16705,0
-2144,-385,9848,231,2280,414,-7388,666,-16688,0
-3415,-642,6981,762,-1181,-27,-7374,805,-16553,0
3999,-512,9721,-684,3218,319,-7318,729,-16789,0
-3104,83,9014,-796,-1673,-200,-7373,840,-16535,0
1994,-305,6254,8,-936,-34,-7303,791,-16711,0
-494,-667,6768,367,889,288,-7411,838,-16519,0
-2577,-1304,10985,522,-1050,15,-7369,801,-16621,0
-1599,538,11441,-266,-888,34,-7373,824,-16662,0
-1153,-306,6227,1339,-81,172,-7333,834,-16677,0
844,-387,5746,347,958,213,-7249,855,-16717,0
-3341,-1058,10346,365,-315,92,-7259,759,-16665,0
4421,-1125,12929,442,1928,73,-7295,703,-17017,0
-2391,-171,7915,-829,-2095,-97,-7250,809,-16667,0
3748,-112,9244,133,4079,833,-7316,708,-16928,0
104,-310,5357,1172,-2519,152,-7333,815,-16637,0
2259,86,8903,-500,2481,429,-7392,811,-16643,0
-1728,-186,7373,-465,91,88,-7389,857,-16559,0
-2161,-186,7230,610,-1851,63,-7354,830,-16601,0
1153,-310,8331,-543,1816,324,-7343,884,-16635,0
-2540,-1539,10100,178,-731,24,-7319,856,-16556,0
2814,-942,8918,44,185,85,-7312,926,-16773,0
-3930,450,8185,-1875,-2171,-306,-7306,793,-16622,0
-67,-1133,7569,287,1304,286,-7389,819,-16762,0
4637,-345,7570,-67,-985,-176,-7284,732,-16774,0
-8434,184,9896,769,-2222,-547,-7393,752,-16490,0
-2366,-1611,10070,2537,3362,2012,-7513,949,-16400,0
-2151,-216,7399,-992,-1148,-257,-7259,937,-16580,0
-1830,1488,9971,-641,-790,64,-7236,789,-16544,0
2736,923,9854,-347,8493,-1214,-7343,683,-16599,0
6212,-2034,15162,-224,7931,2025,-7161,815,-16507,0
-8189,1254,17542,-3192,-2860,-1106,-7228,812,-16297,0
1653,-356,4431,1412,-823,286,-7271,553,-16635,0
-1830,-1314,5396,1245,559,574,-7238,601,-16425,0
-204,759,8053,-822,-168,113,-7241,560,-16625,0
1151,-871,7939,497,839,379,-7311,610,-16549,0
-2659,-379,11348,169,-700,118,-7262,536,-16506,0
1331,-1269,10270,1213,242,200,-7369,568,-16554,0
936,-269,6891,348,758,342,-7357,590,-16543,0
-483,-171,6398,59,-1110,60,-7310,684,-16492,0
354,-750,7234,10,40,191,-7295,691,-16512,0
-1525,-860,9268,134,-523,134,-7317,623,-16544,0
1208,-830,8681,69,436,322,-7338,701,-16549,0
461,-139,8173,-197,303,208,-7363,679,-16566,0
-102,163,5610,195,108,260,-7318,722,-16483,0
-54,-644,6269,516,53,322,-7242,662,-16507,0
-1760,-360,9008,355,-194,218,-7243,725,-16513,0
1301,-1092,8383,313,389,239,-7219,730,-16458,0
112,-313,9937,-277,118,176,-7234,682,-16592,0
728,601,10156,-1099,-780,113,-7256,704,-16490,0
-1173,433,6128,185,-441,120,-7229,693,-16494,0
-835,-857,8539,635,-340,107,-7266,779,-16479,0
167,-6,8106,136,480,108,-7233,742,-16552,0
-791,-760,10613,351,403,116,-7219,745,-16637,0
934,67,8295,321,-1169,103,-7190,671,-16570,0
-643,361,7571,430,2398,580,-7166,494,-16638,0
-1491,-783,7111,1190,-873,126,-7172,646,-16373,0
2185,-1245,11049,-1448,907,101,-7168,870,-16369,0
-1828,1825,8037,-2245,-1079,9,-7123,883,-16347,0
1649,747,4600,-883,-191,122,-7069,786,-16410,0
-1574,-1628,13681,-89,-1414,72,-7149,713,-16457,0
2420,70,12742,-548,-43,97,-7153,814,-16237,0
-415,887,5878,-423,474,200,-7160,735,-16319,0
114,142,6399,480,-650,179,-7123,799,-16379,0
461,-745,9527,785,3,276,-7123,779,-16400,0
-1373,-291,8744,116,-604,90,-7141,822,-16347,0
2021,146,5523,365,886,323,-7090,747,-16341,0
795,1111,5853,97,-593,134,-7099,704,-16457,0
-7042,-987,10300,609,-1016,-105,-7092,794,-16114,0
2012,-1834,8294,-506,1615,444,-7080,754,-16413,0
-1573,779,8248,-1909,889,204,-7106,697,-16317,0
578,244,6373,254,-1316,95,-7020,563,-16434,0
-1053,-1383,10077,1343,157,309,-7039,470,-16472,0
2318,-9,7522,1105,2060,420,-7057,541,-16304,0
-1080,137,7664,103,-1404,153,-7008,510,-16393,0
516,-17,7155,359,82,224,-7100,635,-16262,0
1019,-475,9652,181,264,208,-7067,583,-16263,0
-571,303,8695,-114,-845,102,-7111,657,-16288,0
-734,631,6840,292,110,144,-7145,634,-16263,0
419,-978,5280,527,389,285,-7179,617,-16357,0
-2329,767,9131,-233,279,106,-7244,633,-16317,0
1702,-14,7125,327,-114,177,-7190,535,-16489,0
-1531,855,7613,-113,938,318,-7252,643,-16227,0
291,-1447,8187,649,294,150,-7199,628,-16317,0
-1291,-162,7366,-216,-79,82,-7245,668,-16321,0
264,415,7996,-157,-421,32,-7213,630,-16314,0
236,126,7601,172,539,204,-7183,580,-16408,0
-1868,-800,8612,472,-389,127,-7195,654,-16296,0
957,219,9191,-376,617,94,-7270,662,-16368,0
-923,177,7848,-121,-50,100,-7238,693,-16260,0
-1286,200,8000,285,-552,26,-7216,701,-16294,0
1780,-327,8357,365,369,143,-7247,664,-16463,0
-2545,-489,8820,258,-244,83,-7205,785,-16236,0
2652,470,5200,-43,953,334,-7251,683,-16452,0
-1888,-421,7760,-113,-383,107,-7241,789,-16251,0
185,-1277,7452,417,29,217,-7242,712,-16269,0
-95,-103,10311,-341,438,48,-7251,735,-16339,0
-829,-181,8581,222,-381,168,-7216,765,-16271,0
-549,-492,9752,352,323,264,-7211,751,-16415,0
-2067,-880,6052,1305,-1580,6,-7285,798,-16174,0
2322,-29,9483,-721,3100,310,-7292,746,-16457,0
-1824,-945,11819,251,-2631,-68,-7281,833,-16464,0
964,403,8013,-220,309,212,-7289,726,-16337,0
-1293,-794,8648,255,202,213,-7347,726,-16388,0
-564,-865,6920,271,-145,122,-7420,863,-16268,0
904,-208,9662,49,613,156,-7404,918,-16324,0
-1460,-192,8088,105,-1229,-17,-7333,950,-16265,0
690,-112,5929,180,252,162,-7375,1001,-16312,0
-1359,-663,8763,244,-204,129,-7287,931,-16372,0
-170,-779,7318,85,195,150,-7340,1014,-16337,0
-714,29,8239,52,26,64,-7302,955,-16378,0
868,-1065,7922,281,1394,233,-7318,931,-16460,0
-447,1161,7740,-542,-1355,25,-7293,931,-16420,0
643,-1113,10183,904,241,102,-7360,736,-16573,0
-4070,-973,9706,371,707,157,-7405,740,-16400,0
439,-158,8225,337,-177,103,-7292,685,-16417,0
913,-483,10255,-1289,4525,427,-7333,838,-16289,0
1856,575,4079,-884,-1771,-95,-7153,984,-16294,0
540,1091,6630,28,482,217,-7183,884,-16335,0
-2358,164,9273,-182,59,139,-7278,893,-16326,0
-1590,-1735,8990,2492,-366,212,-7151,928,-16284,0
-1391,-880,6862,22,1111,127,-7185,926,-16290,0
492,678,8287,-579,805,174,-7230,930,-16333,0
-410,270,8128,618,-1226,57,-7122,856,-16373,0
-459,-482,8936,387,419,189,-7206,889,-16405,0
-431,-876,8124,287,891,290,-7202,967,-16299,0
1058,1136,7460,-615,55,89,-7136,937,-16410,0
-507,-368,6911,254,-16,94,-7144,970,-16355,0
-632,446,8442,-166,-166,-7,-7182,908,-16313,0
-491,-135,8718,200,1109,246,-7198,797,-16473,0
-2455,-692,8614,787,-1213,-12,-7208,884,-16301,0
813,350,6937,-367,817,214,-7164,841,-16441,0
-2268,223,9434,-46,-245,59,-7153,852,-16425,0
37,-43,6730,630,-290,84,-7147,896,-16345,0
-494,-349,8251,417,52,160,-7170,856,-16373,0
-3480,-291,9107,8,-567,-11,-7196,846,-16367,0
94,-636,5777,644,-710,85,-7122,857,-16352,0
-610,-777,8692,31,651,155,-7119,816,-16347,0
-2427,79,9290,183,-448,36,-7178,855,-16366,0
415,-1159,10106,637,87,53,-7125,769,-16441,0
-1640,-1025,7223,836,531,236,-7134,830,-16489,0
-142,-564,6835,446,205,121,-7141,880,-16355,0
857,-1902,8775,376,-446,58,-7046,896,-16437,0
-2646,-9,10251,-2275,-408,-121,-7085,878,-16416,0
2183,143,7299,10,-604,-2,-7094,872,-16427,0
-2450,-2114,8495,142,468,277,-7099,863,-16371,0
-2134,-2317,6870,505,-273,132,-7087,911,-16400,0
-198,-2459,11156,149,657,389,-7073,981,-16275,0
-1474,-1978,7178,809,-675,100,-7039,1027,-16255,0
513,-1562,6018,238,1360,372,-7086,1130,-16293,0
463,-2834,8170,-289,199,806,-6934,1256,-16047,0
-157,-2548,7123,-228,194,570,-6758,1379,-15951,0
1370,-3677,7299,592,-1175,1791,-6513,1500,-15916,0
-1777,-2693,16102,-2501,923,-563,-6501,1739,-15588,0
2380,394,5946,-3130,-298,488,-6359,1690,-15675,0
-1747,-1357,7589,-73,-681,-343,-6338,1756,-15427,0
-883,-2258,6400,313,-519,85,-6242,1732,-15460,0
747,-2310,6881,73,110,159,-6314,1850,-15342,0
-1177,-3341,9374,-1,-1109,52,-6262,1868,-15280,0
814,-1651,8183,-121,11,81,-6241,1838,-15340,0
-1024,-2798,8902,896,100,94,-6211,1816,-15329,0
-426,-2150,8256,260,211,73,-6272,1791,-15384,0
-334,-2737,8352,71,36,63,-6240,1919,-15236,0
335,-2645,8156,85,270,88,-6221,1895,-15244,0
-10,-2381,7511,153,53,88,-6188,1903,-15172,0
-439,-2792,7791,231,-7,114,-6235,1846,-15295,0
-15,-2225,8514,-13,-74,94,-6256,1887,-15296,0
-409,-2387,8615,32,-34,83,-6221,1853,-15311,0
-337,-2224,7431,173,-46,89,-6221,1848,-15344,0
-171,-2360,7636,154,-20,94,-6212,1892,-15277,0
-385,-2554,7801,170,-44,101,-6236,1910,-15165,0
-216,-2367,8355,48,26,99,-6278,1922,-15189,0
-108,-2275,8423,76,18,100,-6281,1896,-15218,0
-40,-2211,8359,112,130,96,-6271,1893,-15224,0
-67,-2255,8279,116,177,92,-6251,1866,-15200,0
-135,-2157,7924,170,160,92,-6265,1870,-15262,0
-187,-1509,7482,55,79,80,-6259,1870,-15251,0
-442,-1090,8144,-98,14,61,-6260,1837,-15266,0
-550,-767,8509,-10,3,94,-6298,1816,-15300,0
-528,-658,8203,61,-4,109,-6302,1806,-15297,0
-528,-853,7560,180,13,108,-6257,1817,-15346,0
-238,-966,7516,177,19,87,-6263,1844,-15339,0
-373,-873,8049,150,-14,80,-6278,1795,-15274,0
-603,-445,8263,88,-42,87,-6224,1821,-15307,0
-470,470,7988,-38,-2,97,-6305,1764,-15347,0
-457,377,8172,0,14,91,-6277,1709,-15414,0
-535,62,8423,55,62,88,-6296,1694,-15340,0
-387,252,8330,105,76,79,-6248,1696,-15357,0
-189,369,7864,122,51,68,-6346,1695,-15318,0
-297,167,8137,148,20,86,-6329,1706,-15384,0
-398,-89,8446,130,18,101,-6339,1695,-15404,0
-245,-79,8203,145,-16,94,-6317,1678,-15374,0
-329,64,7997,135,22,86,-6369,1693,-15338,0
-410,31,8116,124,74,85,-6320,1706,-15318,0
-359,36,8139,134,89,91,-6305,1703,-15326,0
-422,94,8184,147,127,97,-6354,1716,-15354,0
-487,79,8028,156,88,103,-6329,1688,-15346,0
-326,-14,7969,156,98,94,-6352,1687,-15332,0
-391,135,8040,146,89,78,-6343,1760,-15309,0
-419,51,8277,155,40,87,-6346,1706,-15318,0
-277,152,8030,118,35,98,-6368,1722,-15359,0
-377,160,7816,123,40,92,-6327,1750,-15374,0
-613,99,7857,113,20,86,-6325,1720,-15371,0
-513,180,7978,112,64,87,-6362,1708,-15375,0
-400,82,7892,121,85,94,-6339,1763,-15346,0
-436,69,7947,119,91,78,-6357,1755,-15344,0
-473,121,7742,96,34,90,-6340,1728,-15368,0
-395,108,7774,99,58,91,-6331,1739,-15300,0
-455,176,8056,116,26,97,-6325,1715,-15353,0
-400,117,8045,132,47,96,-6315,1717,-15338,0
-531,22,7800,146,-13,83,-6313,1765,-15351,0
-550,-2,7812,147,13,93,-6314,1756,-15311,0
-562,8,7984,158,-15,100,-6343,1740,-15304,0
-460,26,7899,142,-8,95,-6322,1799,-15344,0
-608,71,8079,139,10,97,-6281,1758,-15305,0
-626,119,8092,125,-1,98,-6295,1719,-15305,0
-437,152,8087,107,22,98,-6303,1741,-15266,0
-458,227,8123,96,13,94,-6316,1688,-15328,0
-492,107,8197,110,0,104,-6313,1714,-15294,0
-253,-14,8195,134,-1,99,-6303,1725,-15278,0
-435,42,8054,100,-7,82,-6324,1685,-15345,0
-419,54,8158,97,9,88,-6332,1696,-15339,0
-478,168,8182,64,-8,79,-6336,1627,-15360,0
-469,211,8185,67,-16,82,-6352,1704,-15362,0
-604,585,7342,-51,25,60,-6390,1732,-15339,0
-655,2186,8131,-219,67,-256,-6469,1589,-15468,0
-747,1957,7984,-84,146,84,-6642,1571,-15567,0
-179,1698,8184,165,172,90,-6681,1561,-15608,0
-399,2539,7888,-27,102,-167,-6703,1559,-15647,0
-72,1957,8091,94,136,115,-6714,1530,-15643,0
-259,1287,8338,276,99,125,-6711,1535,-15605,0
-471,883,8860,292,-111,121,-6707,1521,-15612,0
-669,322,8188,291,-95,105,-6683,1531,-15591,0
-350,357,7147,261,-111,133,-6690,1562,-15601,0
-547,673,7802,91,-58,121,-6658,1565,-15646,0
-804,1016,8055,55,-24,114,-6684,1607,-15610,0
-637,1250,7966,56,137,114,-6676,1612,-15580,0
-792,1181,8572,66,72,101,-6737,1630,-15523,0
-411,1412,7851,92,130,105,-6701,1628,-15502,0
3,1144,7543,104,220,118,-6732,1609,-15555,0
-601,1173,8095,123,-11,101,-6719,1591,-15450,0
-332,959,8456,222,-3,95,-6688,1582,-15454,0
-486,902,7984,249,-66,149,-6676,1531,-15482,0
-156,395,8144,231,-87,101,-6690,1598,-15495,0
-601,673,7743,117,-181,48,-6662,1624,-15417,0
-186,215,7387,183,-86,151,-6697,1592,-15522,0
-740,-86,8074,38,-23,154,-6656,1560,-15555,0
-652,-159,8525,77,239,129,-6679,1584,-15568,0
-760,-204,8110,149,177,164,-6672,1593,-15560,0
-272,129,7729,110,176,108,-6652,1631,-15516,0
-257,601,7718,38,173,115,-6666,1658,-15520,0
-514,1225,8267,500,127,143,-6699,1576,-15606,0
-722,2498,8863,114,-16,-156,-6748,1524,-15587,0
-662,2291,8425,87,57,191,-6768,1433,-15681,0
-385,842,8372,336,37,168,-6746,1432,-15684,0
131,249,8056,299,-32,119,-6763,1462,-15665,0
-321,378,7554,304,-166,143,-6742,1424,-15696,0
-812,1213,7286,127,-289,165,-6775,1423,-15653,0
-748,1584,7866,-18,-98,178,-6795,1515,-15605,0
-862,1089,7824,-76,-4,161,-6782,1557,-15576,0
-609,999,7863,22,208,111,-6817,1473,-15599,0
-407,919,7601,43,303,90,-6777,1464,-15656,0
-702,1434,8336,169,131,39,-6794,1474,-15663,0
-643,1269,8527,274,110,68,-6790,1429,-15723,0
-134,1314,8776,288,121,114,-6797,1439,-15819,0
-647,1310,8151,55,-40,83,-6840,1541,-15691,0
-283,1060,8099,56,-97,111,-6832,1483,-15636,0
-271,362,8041,379,-166,81,-6811,1487,-15637,0
-81,-373,8427,334,302,129,-6782,1522,-15634,0
149,775,7055,292,-87,115,-6790,1497,-15657,0
-433,-177,8134,472,147,145,-6784,1512,-15652,0
-1050,169,7367,25,-146,111,-6772,1583,-15522,0
-567,-705,8198,278,112,119,-6791,1554,-15487,0
-771,-389,8635,210,118,106,-6740,1509,-15489,0
-338,-229,9550,-52,124,45,-6737,1522,-15537,0
-187,447,7212,150,108,49,-6743,1498,-15580,0
-511,2905,7854,158,-173,-1425,-6876,1342,-15837,0
-902,1887,8012,300,-193,210,-7169,1214,-16002,0
72,-123,9493,199,-9,26,-7099,1263,-15819,0
126,407,7973,56,279,37,-7053,1291,-15799,0
-438,2142,6875,30,-643,-27,-7127,1264,-15863,0
-1368,1977,7924,135,103,-16,-7157,1260,-15922,0
-521,135,9287,240,-218,26,-7143,1411,-15815,0
-1301,1021,7931,123,-124,96,-7141,1383,-15697,0
-1245,1483,6353,172,152,73,-7103,1341,-15710,0
-382,769,8060,309,415,153,-7084,1391,-15768,0
285,1713,9328,-334,224,89,-7052,1395,-15855,0
-339,903,8022,320,184,88,-7138,1486,-15735,0
-733,1365,7212,141,-267,128,-7127,1457,-15739,0
-201,977,8635,64,165,201,-7150,1419,-15809,0
-160,1152,9601,309,-108,162,-7158,1350,-15875,0
-1737,1642,6426,-37,-355,46,-7200,1501,-15789,0
1650,1349,7284,183,815,216,-7211,1432,-15820,0
-3873,588,9733,575,-867,123,-7211,1458,-15739,0
1488,779,7251,265,727,203,-7274,1446,-15899,0
-986,1472,7225,-98,378,120,-7301,1590,-15756,0
-532,588,7869,199,-58,100,-7251,1561,-15707,0
323,936,8820,47,169,93,-7232,1551,-15920,0
-467,709,9557,314,-564,59,-7174,1503,-16004,0
-348,156,7976,358,-370,86,-7168,1484,-15945,0
-383,406,7019,152,-454,119,-7040,1444,-16036,0
-739,42,6514,152,184,80,-7095,1424,-16093,0
-1328,-517,7691,462,-31,159,-7104,1482,-15992,0
-1237,43,9967,-78,281,85,-7114,1422,-15966,0
-522,-355,7592,99,237,103,-7099,1363,-16034,0
-214,-40,6446,105,417,149,-7049,1354,-16002,0
264,2285,5973,-1117,547,40,-7114,1384,-15941,0
394,2466,9908,377,453,-49,-7134,1307,-16065,0
-1565,1171,6223,215,-1046,140,-7107,1311,-15980,0
1420,-392,9945,577,1801,201,-7114,1333,-15971,0
-1253,1089,6758,-369,-118,-9,-7125,1369,-15907,0
-974,726,8865,255,-160,43,-7160,1342,-15980,0
-1110,343,8792,185,-258,107,-7137,1314,-16058,0
-685,1377,8163,-243,-8,80,-7180,1325,-15966,0
-1373,694,6493,404,-276,116,-7103,1285,-15929,0
-908,638,8065,189,380,77,-7095,1317,-15927,0
-1094,908,8304,145,137,127,-7078,1434,-15805,0
47,-883,9962,982,569,152,-6985,1416,-15841,0
-849,2607,8616,-284,43,100,-6992,1353,-15981,0
-1022,-665,7292,1730,14,262,-6997,1393,-15879,0
565,1072,8814,-565,415,86,-6977,1279,-15958,0
-2532,1317,5916,-444,-684,-23,-6986,1114,-15851,0
-2082,1557,1937,-201,-1149,-298,-7071,1298,-15613,0
-5272,251,6773,-159,-2995,-30,-6981,1224,-15636,0
-959,1141,10425,-79,-583,56,-7088,1174,-15868,0
176,92,8107,1053,1627,224,-7085,1206,-15767,0
-420,565,7328,31,-353,28,-7056,1186,-15928,0
-149,976,8746,188,615,189,-7132,1103,-16060,0
-1048,714,8466,-5,-139,117,-7109,1152,-15920,0
-1432,1076,7917,-135,-236,78,-7164,1068,-16051,0
415,1778,6988,244,799,62,-7170,1047,-16051,0
-2146,301,8061,325,-564,131,-7095,1066,-15937,0
-6,1022,8809,58,-215,108,-7158,1028,-16151,0
-1006,47,7054,303,-231,126,-7178,1093,-16028,0
226,-1060,9086,657,488,146,-7155,1080,-16032,0
-1097,238,8165,40,-456,30,-7120,1110,-16142,0
295,-231,7511,411,70,183,-7185,1165,-16037,0
-2071,-571,5609,466,-450,107,-7135,1157,-16005,0
206,-307,8227,-152,321,88,-7137,1195,-16057,0
-1195,-181,9145,71,-241,60,-7194,1128,-16048,0
175,-89,9493,92,155,106,-7120,1050,-16151,0
-1024,-115,6560,317,277,122,-7170,1106,-15966,0
-663,-710,8198,411,-67,146,-7113,1093,-16025,0
-155,237,8570,-91,339,47,-7164,1083,-16146,0
102,-192,8615,154,-397,-5,-7189,1116,-16042,0
-2367,-365,8149,220,433,97,-7197,1052,-16060,0
895,688,6126,152,-536,7,-7245,1135,-16121,0
-1125,124,9089,54,314,58,-7195,1049,-16131,0
-1200,776,9015,69,-528,15,-7204,1021,-16281,0
-2047,-340,7588,694,74,142,-7242,1089,-16204,0
-1494,79,9259,74,-604,85,-7229,1073,-16268,0
-332,320,11169,-670,1142,170,-7240,1121,-16287,0
-1430,512,10001,-486,-799,-100,-7189,1213,-16089,0
-64,758,3792,-49,-590,24,-7133,1189,-16179,0
-117,814,5739,-723,698,258,-7178,1214,-16193,0
1,914,8292,-434,-9,154,-7095,1203,-16181,0
-112,1025,9581,14,-614,56,-7084,1083,-16285,0
-393,-1464,7498,1544,577,297,-7028,1216,-16058,0
422,252,6298,-64,-52,43,-6954,1082,-16211,0
-1052,327,8084,218,1,68,-6997,1053,-16207,0
535,241,10257,-13,-256,2,-7041,946,-16180,0
-2069,-191,9430,627,-330,14,-7077,928,-16150,0
-1630,238,8543,-3,-299,-5,-7170,1022,-16091,0
305,-330,6221,321,-88,80,-7143,1029,-16145,0
1044,-690,7367,78,660,118,-7158,1044,-16234,0
-2094,-436,7770,-134,-28,40,-7191,1029,-16133,0
487,1435,8128,-421,42,53,-7263,890,-16205,0
-978,-158,7155,581,488,285,-7235,1046,-16011,0
-1759,-1351,7877,784,-28,121,-7158,1108,-15889,0
787,164,7707,34,137,170,-7218,1088,-16100,0
926,-545,7439,217,878,312,-7256,1159,-16054,0
220,-472,7604,-26,-66,120,-7157,1125,-15972,0
-70,-447,9147,222,24,159,-7206,1113,-16118,0
-847,-492,7691,242,-335,171,-7253,1196,-15992,0
-868,480,5688,136,-545,190,-7263,1157,-16047,0
289,-913,8385,690,262,178,-7294,1217,-16000,0
250,-707,7930,638,-500,64,-7314,1251,-15915,0
-2188,-296,8619,348,-1155,45,-7271,1220,-15975,0
52,201,4945,-292,1507,179,-7346,1337,-15922,0
-2112,415,8057,-873,-840,-139,-7253,1327,-15958,0
-2188,-132,11525,-163,39,-21,-7329,1276,-16121,0
237,-919,11445,1450,1123,282,-7387,1328,-15925,0
-1629,-368,4716,285,-369,-64,-7210,1364,-15804,0
1662,-802,7806,374,1041,231,-7118,1336,-15924,0
-2634,-1118,7594,475,-756,2,-7122,1344,-15772,0
1116,-806,9823,-400,651,65,-7156,1331,-15885,0
-360,-119,11244,4,40,56,-7133,1364,-15880,0
-1336,-70,6954,629,-443,111,-7091,1278,-15785,0
-262,-741,7649,372,208,123,-7097,1282,-15885,0
-897,-707,8070,129,-215,79,-7056,1351,-15850,0
-288,-232,8251,259,92,94,-7034,1304,-15817,0
-903,-725,9007,-130,133,136,-7035,1247,-15905,0
121,-706,8285,387,251,133,-7057,1294,-15790,0
-291,-216,7508,0,50,98,-6883,1143,-15780,0
-658,-667,6800,401,-14,167,-6809,982,-15969,0
819,-1177,8300,-59,460,125,-6778,962,-15973,0
380,78,8933,2,359,118,-6819,883,-16060,0
-125,-508,7950,106,59,114,-6856,851,-16035,0
-1531,-709,8432,346,-302,116,-6890,931,-15964,0
684,-703,8144,75,1278,111,-6883,924,-15984,0
-1056,-521,6337,171,-641,160,-6872,917,-16077,0
-957,-17,7414,69,-192,88,-6959,1014,-16071,0
-1881,-2072,9862,548,-255,121,-6914,964,-15977,0
-890,-1042,7223,309,-413,157,-6953,930,-16072,0
753,-439,7904,-193,1061,82,-6943,1034,-16024,0
-3875,-904,8236,407,-1707,120,-6884,1061,-15886,0
4863,1033,8670,-330,3123,-30,-6935,908,-16236,0
-5370,-891,11272,-393,-2044,-248,-6982,1035,-15970,0
1745,-1085,6655,715,-645,30,-6938,979,-16019,0
360,-568,7769,-29,1391,133,-6922,984,-15929,0
-2986,-675,9030,58,-1388,-59,-6910,980,-15983,0
2152,-297,8174,4,1356,170,-6922,1011,-16004,0
397,-171,6738,8,180,98,-6922,987,-15982,0
-1864,-362,8698,233,98,125,-6943,942,-16072,0
2890,729,5858,-172,341,51,-6979,1047,-16008,0
-735,-351,9411,-128,531,127,-6970,1040,-15910,0
-1307,-2111,8042,949,-454,193,-6969,1092,-15992,0
680,-268,6607,-322,-382,41,-6966,1184,-16071,0
1155,-1201,8064,-343,942,26,-6994,1159,-15966,0
-3509,-130,9621,-250,-1229,-14,-6924,1125,-16069,0
2108,-386,10632,33,859,76,-7040,1032,-16379,0
843,443,11727,-568,374,95,-7004,1027,-16327,0
3626,-848,6895,765,1315,607,-6862,980,-16235,0
174,-722,4461,377,-1322,123,-6801,1032,-16108,0
-71,-411,5592,302,2473,467,-6898,1135,-15854,0
1638,-1450,8327,2446,-344,595,-6977,1079,-15992,0
1143,114,10749,-1544,2139,345,-7086,1094,-15952,0
-830,1460,3932,-386,-1268,236,-7011,1021,-16042,0
-3092,-139,7586,869,-388,413,-6975,1094,-15914,0
-817,-1188,7472,705,-296,270,-6905,1133,-15881,0
743,408,9158,-101,177,259,-6973,1082,-15954,0
143,-37,7649,327,-515,216,-6922,1153,-15982,0
1698,293,6965,-69,378,300,-6917,1155,-15923,0
-249,595,5869,474,-1797,265,-6878,1061,-15953,0
-600,-46,9016,-548,619,163,-6867,1045,-15937,0
1232,430,12322,195,421,215,-6987,1080,-15991,0
-3521,-126,7827,586,-999,59,-6903,1134,-15793,0
822,61,5805,52,174,148,-6871,1083,-15923,0
-130,225,7466,145,516,132,-6869,1097,-16061,0
-335,-168,8434,46,-91,93,-6893,1139,-15925,0
-5443,-1745,10418,881,-1975,-144,-6837,1036,-15819,0
4635,-542,7906,-902,2635,254,-6890,990,-16051,0
-1881,1227,7143,-780,-948,-25,-6821,995,-15972,0
-848,-209,7264,287,-232,63,-6789,903,-15962,0
-472,392,8266,41,31,78,-6828,856,-16047,0
-1208,642,8582,93,-44,99,-6849,911,-16166,0
-999,-334,8248,221,-115,92,-6834,921,-16009,0
-715,317,6665,81,37,72,-6824,917,-16061,0
-415,707,7223,-44,-14,76,-6870,850,-16197,0
-686,415,7868,-135,-38,64,-6881,909,-16021,0
-706,561,8207,-72,-91,58,-6854,841,-16031,0
-541,745,6928,41,-42,55,-6897,811,-16135,0
-592,206,6576,119,-129,55,-6887,903,-16105,0
-990,636,7530,-68,-224,43,-6881,875,-16077,0
-1551,-8,7146,271,-448,110,-6932,856,-16172,0
-333,1115,6815,-7,191,40,-6894,887,-16182,0
-892,302,9215,191,35,101,-6946,887,-16072,0
-261,324,9816,502,112,47,-6968,861,-16113,0
-198,-993,8198,429,114,118,-6927,876,-16237,0
-3132,-10,7106,-167,-1356,-62,-6889,938,-16096,0
3235,2254,7068,-1859,2002,143,-6946,874,-16273,0
-2477,199,11308,-175,277,14,-6952,800,-16213,0
-2640,-715,9165,772,-1283,95,-6995,859,-16135,0
1903,578,8850,-363,2079,-43,-6982,839,-16283,0
-1801,283,7332,-58,-297,-33,-6924,806,-16255,0
-427,-172,9258,282,206,27,-6994,858,-16250,0
-618,491,8911,142,142,-15,-6879,817,-16147,0
-885,506,7884,31,-112,-19,-6954,779,-16228,0
-586,114,6646,183,67,11,-6998,876,-16130,0
-1056,-52,7750,52,69,7,-6949,829,-16224,0
-958,268,9337,63,-79,4,-6981,793,-16281,0
-480,450,8243,222,98,55,-6994,858,-16188,0
-1373,102,7436,217,-23,27,-6961,867,-16154,0
-674,772,7247,34,-3,35,-7012,825,-16287,0
-896,-54,8136,207,59,26,-7017,870,-16182,0
-789,495,9528,-10,70,18,-6995,830,-16245,0
-558,209,7578,245,58,54,-7023,770,-16288,0
-193,-183,8063,382,33,72,-7053,855,-16171,0
-141,170,6524,191,-47,25,-6951,841,-16140,0
-1136,67,7056,210,-320,0,-6986,863,-16217,0
-1060,-768,9534,314,-118,1,-6969,882,-16057,0
119,274,4819,-180,147,-3,-6966,853,-16073,0
6065,1801,8724,-685,2109,-79,-7007,743,-16336,0
-5870,-856,12405,-159,-2254,-350,-6951,796,-15879,0
-1431,-1050,8354,819,-565,138,-7058,804,-15994,0
1024,396,9019,-376,1476,73,-7088,834,-16072,0
-1635,-56,8558,-204,41,-79,-7055,881,-15993,0
-1075,-326,6816,294,-388,-16,-7072,863,-16019,0
17,-289,9037,165,249,-23,-7047,886,-16155,0
-528,-376,6945,337,97,-39,-7095,908,-16048,0
-758,-633,8197,453,71,-37,-7075,854,-16089,0
-160,-355,6108,133,-7,13,-7096,854,-16130,0
-1450,-549,9403,51,87,23,-7063,871,-16076,0
-516,105,7325,-36,-297,-36,-7078,885,-16105,0
-906,84,6498,266,190,32,-7129,910,-16110,0
154,-64,7843,71,522,33,-7076,925,-15955,0
-532,142,5547,81,-15,-18,-7142,870,-15979,0
-298,-526,9335,85,187,-18,-7073,862,-16018,0
-626,125,7653,189,49,55,-7157,897,-15955,0
-427,-227,8440,164,69,39,-7139,861,-15960,0
-1211,-276,8688,88,-166,26,-7133,872,-15971,0
269,-509,8254,205,18,83,-7156,896,-15883,0
-2153,-479,8075,571,-96,22,-7153,912,-15906,0
2234,15,8846,268,226,44,-7210,830,-16024,0
-1504,416,8064,-182,809,83,-7131,894,-15847,0
-2069,2,8209,122,-289,-14,-7115,834,-15912,0
399,348,7427,-167,547,163,-7162,838,-15933,0
-1442,694,8180,-103,-203,-36,-7122,909,-15816,0
-460,36,8935,204,-283,75,-7129,875,-15859,0
583,597,6354,148,446,86,-7143,921,-15922,0
-578,-30,6767,164,-47,72,-7133,941,-15819,0
1434,176,7345,197,498,92,-7133,886,-15896,0
-1651,158,8096,33,-266,-1,-7168,997,-15891,0
104,-171,7879,-173,775,131,-7151,942,-15829,0
-165,671,8634,-209,-26,6,-7152,919,-15820,0
-857,-182,8512,-64,489,141,-7155,978,-15887,0
-987,-204,8395,374,172,72,-7177,1002,-15818,0
-373,453,6704,-94,35,87,-7151,1012,-15974,0
-438,105,7067,439,-17,76,-7134,1027,-16023,0
-702,212,8065,-42,131,102,-7109,990,-15915,0
-590,303,6538,296,40,91,-7173,885,-15946,0
-249,-190,8008,285,274,146,-7182,964,-15886,0
-799,251,6912,-1,7,68,-7131,950,-15864,0
-852,-144,9211,136,-141,102,-7123,950,-15948,0
-586,-116,6879,166,159,114,-7156,1006,-15931,0
-914,-362,8034,167,317,143,-7151,967,-15938,0
-1335,-241,7233,168,83,77,-7135,912,-15999,0
-585,-1043,9320,-26,-39,81,-7141,1002,-15970,0
-739,-439,8677,474,-51,127,-7157,928,-15989,0
-1076,-158,6720,58,-66,85,-7138,940,-16049,0
-1330,-531,8608,279,-222,27,-7186,969,-15952,0
-420,-379,6340,193,225,144,-7117,908,-16020,0
35,-110,9932,78,-15,26,-7144,844,-16130,0
-1697,-138,7942,-218,-239,36,-7197,949,-15982,0
1101,-597,8414,428,170,121,-7126,874,-16049,0
-2834,-952,8248,529,-168,119,-7109,894,-16004,0
-1358,-577,7937,482,-182,71,-7127,933,-15925,0
275,-793,9114,8,308,85,-7120,878,-15989,0
-713,-87,8222,34,-42,69,-7105,881,-16057,0
-127,108,6296,152,172,73,-7157,931,-15928,0
-893,-438,7998,54,124,80,-7100,919,-15944,0
-679,-720,7827,92,-117,72,-7086,916,-16039,0
726,-279,7683,246,520,115,-7163,917,-15947,0
-411,45,9655,-220,91,48,-7111,934,-15913,0
-305,-250,7032,317,98,45,-7093,907,-15999,0
-767,-242,9054,125,35,68,-7159,996,-15882,0
-830,-126,8284,-206,-39,53,-7115,923,-15953,0
-1096,-61,8217,241,-176,41,-7135,883,-16049,0
234,-371,8026,210,76,116,-7222,954,-15979,0
-471,15,6679,234,-23,95,-7154,896,-16044,0
-780,-196,7429,173,96,50,-7164,814,-16149,0
176,-324,8715,-79,155,51,-7199,811,-16055,0
-598,-93,8223,-78,122,102,-7131,770,-16031,0
-889,-327,8622,-7,-101,84,-7120,816,-15983,0
-315,2,7050,213,70,46,-7140,963,-15740,0
-480,-423,8064,229,28,83,-7102,990,-15825,0
-776,-436,8749,185,-22,53,-7112,989,-15960,0
-641,247,8026,35,198,77,-7185,1056,-15907,0
-935,-292,8107,231,-110,124,-7132,977,-15915,0
-1332,-420,8135,229,9,61,-7132,889,-16011,0
-261,-2,6450,-100,168,76,-7153,939,-15952,0
-674,-381,8025,135,258,111,-7145,916,-16043,0
-688,-585,8867,2,-59,79,-7112,839,-16029,0
90,81,8043,-44,395,83,-7162,930,-15882,0
-432,-784,7363,508,372,125,-7117,926,-15818,0
-348,-100,8380,68,58,91,-7172,970,-15907,0
-447,84,8643,-24,31,85,-7166,1091,-15769,0
-91,-59,7991,68,-106,60,-7109,1090,-15827,0
-1373,-867,7693,742,-169,93,-7149,1061,-15855,0
-610,-476,7419,209,-108,74,-7169,1194,-15846,0
222,-270,7873,13,12,94,-7171,1118,-15885,0
-1433,-423,9054,160,-130,87,-7179,1109,-15924,0
-472,-706,7347,227,-47,48,-7216,1154,-15946,0
-70,30,7078,-26,324,73,-7196,1084,-15953,0
-234,-143,7633,74,-200,2,-7217,977,-16127,0
-1535,-583,7912,457,-21,79,-7176,951,-16101,0
-912,-419,8750,135,17,12,-7211,1005,-15976,0
-831,-644,8398,333,-33,84,-7183,965,-16053,0
-412,-297,8306,-28,-40,62,-7220,980,-16123,0
-494,247,7337,-188,54,70,-7202,1010,-16059,0
-597,131,7164,16,69,82,-7191,925,-16065,0
-691,-409,8064,158,30,87,-7185,930,-16144,0
-779,-687,8320,484,213,115,-7218,993,-16031,0
20,-120,9487,-184,110,61,-7165,978,-16078,0
-609,-400,8376,-80,-524,12,-7191,964,-16108,0
-377,-683,9021,217,256,113,-7221,1095,-15989,0
-1393,-789,7882,301,-203,74,-7184,1040,-15981,0
-1209,-1261,9475,197,-15,105,-7211,1025,-16054,0
61,-951,7547,32,213,144,-7225,1095,-16020,0
-1453,-793,8760,-3,92,136,-7209,1096,-15976,0
-389,-1239,8540,207,33,156,-7187,1055,-16090,0
-335,-1350,9264,259,156,213,-7169,1000,-16155,0
109,-1191,7389,232,143,157,-7233,1078,-15988,0
-824,-931,8185,89,14,142,-7179,1043,-15989,0
-768,-1257,8063,115,-106,101,-7188,1064,-15995,0
-454,-1912,8004,327,228,120,-7153,1132,-15927,0
-262,-1095,7833,26,248,88,-7135,1117,-15845,0
-698,-1360,7494,236,-19,103,-7152,1149,-15878,0
-522,-1200,9568,18,86,73,-7175,1059,-15930,0
-305,-1501,7739,398,225,161,-7140,1185,-15816,0
-902,-1788,7739,296,-10,113,-7172,1209,-15744,0
-491,-1793,7752,176,163,95,-7128,1226,-15804,0
-606,-1388,8657,64,249,101,-7145,1205,-15839,0
-921,-1528,8403,-42,57,79,-7132,1220,-15865,0
-127,-1369,8244,119,355,134,-7207,1224,-15900,0
-1118,-1983,8949,486,-163,68,-7112,1170,-15842,0
-841,-1224,7821,55,-103,76,-7134,1198,-15923,0
-639,-1226,8759,151,-143,20,-7108,1160,-15999,0
-1177,-1762,6580,251,-126,95,-7107,1235,-15924,0
-832,-1323,7747,-94,139,59,-7190,1200,-15860,0
-586,-1302,8279,-65,151,58,-7191,1205,-15809,0
-88,-1720,8206,130,130,54,-7196,1245,-15858,0
-111,-2061,8165,273,-199,16,-7142,1165,-15943,0
-2748,-2274,10005,407,-601,-87,-7180,1234,-15963,0
1526,-1071,8350,-514,621,115,-7216,1218,-16008,0
-2840,-1971,7516,664,-41,194,-7171,1229,-15845,0
-154,-1811,7091,109,-129,60,-7185,1216,-15892,0
-419,-1430,6940,-17,330,93,-7149,1213,-15877,0
-459,-1651,8109,31,277,43,-7169,1234,-15800,0
-593,-1659,8938,50,161,31,-7173,1168,-15929,0
-462,-1733,8469,146,125,77,-7173,1253,-15999,0
-423,-1457,7969,73,76,64,-7204,1277,-15955,0
-575,-1626,7783,175,-136,69,-7182,1297,-15897,0
-470,-1597,7996,132,-50,91,-7175,1274,-15868,0
-625,-1537,8036,160,-171,83,-7147,1250,-15860,0
-679,-1793,7780,273,-24,113,-7117,1216,-15983,0
-727,-1602,7128,191,27,112,-7126,1199,-16030,0
-988,-1792,7356,210,21,102,-7124,1151,-16014,0
-582,-1618,7616,78,126,76,-7131,1176,-16010,0
-700,-1754,8260,93,165,82,-7148,1095,-16040,0
-523,-1847,8414,199,123,96,-7141,1107,-16079,0
-388,-1853,8029,120,66,98,-7118,1124,-16087,0
-441,-1817,8168,78,0,88,-7192,1123,-16090,0
-322,-1682,8022,70,-40,97,-7170,1135,-16051,0
-437,-1540,8056,61,-85,104,-7157,1188,-16048,0
-636,-1291,8177,5,-72,85,-7202,1166,-16050,0
-608,-1099,8288,47,3,91,-7224,1194,-16044,0
-492,-1031,8079,57,65,86,-7157,1183,-15992,0
-400,-1033,8136,143,102,81,-7174,1191,-16000,0
-435,-1120,8135,116,113,82,-7182,1204,-16000,0
-390,-1145,8480,137,71,87,-7162,1176,-15980,0
-303,-436,7998,-42,122,104,-7145,1186,-16028,0
-334,-77,8060,66,29,89,-7210,1133,-16034,0
-414,58,8245,55,66,92,-7183,1093,-16103,0
-556,100,8301,97,27,98,-7197,1095,-16055,0
-539,-112,8211,180,19,100,-7197,1111,-16103,0
-377,-226,7925,171,68,112,-7186,1151,-16101,0
-516,-350,7945,155,43,94,-7193,1153,-16061,0
-585,-391,8151,137,73,92,-7221,1153,-16082,0
-545,-280,8018,92,43,93,-7178,1162,-16101,0
-550,-247,7811,73,58,86,-7197,1152,-16045,0
-576,-207,7902,72,85,79,-7215,1173,-16106,0
-668,-202,8111,82,91,95,-7194,1166,-16023,0
-495,-127,8189,101,70,96,-7206,1150,-16091,0
-494,-91,7946,130,65,107,-7193,1136,-16084,0
-623,-194,8021,165,8,93,-7181,1125,-16115,0
-584,-187,7806,158,-10,86,-7198,1152,-16070,0
-585,-146,7760,149,31,91,-7223,1136,-16094,0
-513,-142,7979,171,66,81,-7217,1154,-16072,0
-659,-124,7719,161,27,88,-7196,1165,-16087,0
-660,-123,7784,166,41,91,-7223,1128,-16026,0
-569,-103,7897,140,65,80,-7168,1136,-16047,0
-624,-128,7997,181,26,76,-7185,1113,-16078,0
-646,-145,8011,195,25,91,-7210,1120,-16073,0
-592,-167,7886,157,19,102,-7213,1119,-16113,0
-606,-251,7954,164,-10,99,-7208,1122,-16089,0
-687,-218,7917,98,-45,97,-7231,1148,-16045,0
-621,-148,7947,104,7,98,-7179,1126,-16096,0
-653,-143,7934,72,-42,94,-7161,1165,-16111,0
-629,-216,7994,73,-28,93,-7177,1131,-16096,0
-596,-117,8041,61,6,87,-7202,1114,-16057,0
-448,-49,8068,66,17,77,-7193,1128,-16063,0
-443,-174,8180,129,10,103,-7212,1154,-16102,0
-388,-150,8197,81,-32,77,-7161,1132,-16091,0
-544,-187,8252,85,-3,90,-7191,1110,-16086,0
-446,-94,8217,87,-3,79,-7153,1142,-16048,0
-480,-106,8252,127,-8,79,-7198,1117,-16087,0
-448,-134,8187,118,33,75,-7166,1143,-16046,0
-360,-53,8086,121,50,72,-7194,1120,-16119,0
-332,-156,8024,177,100,102,-7185,1133,-16055,0
-333,-152,8031,181,92,95,-7209,1166,-16057,0
-478,-292,8108,193,64,101,-7238,1133,-16120,0
-400,-247,8067,152,77,85,-7184,1120,-16066,0
-344,-185,7946,163,50,86,-7223,1163,-16058,0
-531,-273,8158,156,64,100,-7173,1132,-16088,0
-383,-204,7981,153,92,92,-7174,1130,-16087,0
-427,-286,7972,145,67,99,-7191,1122,-16099,0
-433,-330,8157,119,85,99,-7194,1094,-16046,0
-531,-306,8114,105,45,97,-7178,1149,-16087,0
-513,-241,8084,104,84,92,-7232,1181,-16054,0
-513,-135,7962,78,55,102,-7221,1167,-16010,0
-588,-242,8074,107,22,85,-7213,1202,-16029,0
-629,-190,8063,102,16,84,-7215,1210,-16014,0
-649,-134,7893,87,69,95,-7217,1199,-16006,0
-585,-169,8144,98,46,87,-7196,1226,-16009,0
-602,-225,7978,125,42,96,-7218,1233,-15970,0
-618,-192,7996,138,67,99,-7227,1215,-16009,0
-571,-101,7899,130,41,87,-7243,1239,-15985,0
-620,-176,7939,176,29,94,-7260,1256,-15933,0
-540,-145,7917,152,53,100,-7246,1274,-15970,0
-523,-137,7848,173,51,99,-7281,1230,-15948,0
-528,-127,7917,195,39,99,-7271,1275,-15949,0
-612,-135,7837,158,6,100,-7254,1243,-15927,0
-596,-89,7938,135,35,108,-7262,1212,-15975,0
-601,-133,7964,108,28,94,-7242,1275,-15932,0
-653,-187,7968,148,-11,95,-7265,1225,-15934,0
-630,-195,7989,112,15,88,-7301,1197,-15980,0
-649,-173,8032,105,23,100,-7302,1246,-15946,0
-545,-196,8060,121,19,99,-7263,1201,-15985,0
-657,-172,8135,51,-23,85,-7308,1249,-15999,0
-558,-157,8231,73,18,95,-7282,1253,-15987,0
-604,-139,8188,77,-16,95,-7255,1215,-15965,0
-417,-173,8167,63,38,93,-7238,1199,-15967,0
-590,-131,8204,156,30,82,-7247,1176,-15957,0
-419,-55,8212,147,59,80,-7212,1187,-15928,0
-426,-146,8227,152,42,89,-7270,1211,-15902,0
-445,-207,8217,112,11,80,-7248,1172,-15911,0
-547,-94,8257,135,45,93,-7261,1188,-15923,0
-455,-123,8203,143,49,92,-7232,1187,-15911,0
-453,-115,8216,176,44,95,-7241,1191,-15919,0
-495,-243,8186,187,36,103,-7256,1196,-15888,0
-84,-185,7956,145,277,156,-7268,1189,-15955,0
-480,-166,7905,144,81,109,-7263,1198,-15947,0
-491,-243,8087,192,62,93,-7248,1175,-15933,0
-518,-287,8066,139,68,104,-7199,1155,-15992,0
-599,-174,8182,117,166,130,-7198,1173,-16011,0
-432,-206,7999,153,52,93,-7188,1167,-16034,0
-494,-223,8085,159,46,103,-7164,1140,-16078,0
-355,-181,7841,138,109,289,-7197,1157,-16047,0
-566,-130,7974,87,-64,74,-7205,1133,-16043,0
-484,-164,8033,132,20,81,-7195,1107,-16054,0
-557,-118,7915,103,32,95,-7184,1133,-16041,0
-493,-66,7919,84,57,102,-7191,1122,-16076,0
-599,-18,7832,79,-35,80,-7164,1093,-16032,0
-558,-66,7788,99,-1,96,-7183,1116,-15997,0
-574,-112,7913,90,21,79,-7179,1149,-16011,0
-650,-69,7809,97,24,83,-7199,1126,-16034,0
-529,-99,7953,161,41,90,-7212,1097,-16002,0
-583,-152,7912,162,21,93,-7212,1089,-16004,0
-601,-90,7964,159,14,77,-7215,1091,-15920,0
-592,-60,7909,139,15,65,-7179,1058,-15930,0
-563,-119,7796,153,18,75,-7188,1028,-15891,0
-608,-112,7980,128,15,50,-7202,1100,-15873,0
-385,-30,7874,79,27,-104,-7222,1086,-15837,0
-524,-175,8058,126,18,85,-7194,1072,-15832,0
-505,-149,8038,149,-20,96,-7201,1082,-15822,0
-563,-11,8007,114,22,91,-7202,1036,-15806,0
-521,-65,8023,121,12,83,-7201,1032,-15836,0
-500,-103,8015,117,18,106,-7189,1080,-15820,0
-468,-97,8047,106,-6,93,-7175,1079,-15802,0
-431,-66,8086,89,-10,87,-7154,1075,-15776,0
-367,-201,8194,102,22,89,-7177,1079,-15783,0
-390,-153,8284,113,26,81,-7220,1097,-15869,0
-422,-85,8269,127,24,80,-7192,1046,-15774,0
-435,-119,8198,128,44,90,-7194,1083,-15761,0
-232,-87,8214,187,-51,83,-7184,1077,-15763,0
-406,-156,8266,157,20,74,-7179,1148,-15786,0
-352,-82,8308,178,37,80,-7195,1147,-15767,0
-372,-171,8205,219,73,95,-7232,1205,-15809,0
-300,-156,8112,173,68,97,-7234,1192,-15768,0
-469,-203,8142,180,24,96,-7244,1191,-15832,0
-391,-211,8080,142,72,95,-7245,1201,-15878,0
-309,-198,8052,144,87,99,-7222,1197,-15819,0
-426,-218,8058,154,64,94,-7250,1193,-15829,0
-433,-190,7960,122,73,102,-7226,1200,-15854,0
-450,-203,7979,126,38,98,-7216,1175,-15847,0
-426,-204,8094,138,52,102,-7200,1209,-15804,0
-522,-187,8022,122,43,93,-7226,1193,-15823,0
-458,-225,8105,98,53,91,-7212,1205,-15803,0
-435,-151,7934,75,36,97,-7233,1225,-15881,0
-588,-146,8037,138,18,97,-7205,1206,-15839,0
-584,-104,8043,83,38,81,-7248,1216,-15828,0
-546,-64,7880,94,37,90,-7221,1205,-15831,0
-513,-103,7956,139,35,85,-7216,1194,-15880,0
-594,-121,7880,127,18,90,-7236,1198,-15864,0
-577,-88,7937,158,47,88,-7254,1187,-15853,0
-573,-89,7968,124,31,85,-7203,1232,-15867,0
-631,-76,7948,172,29,89,-7257,1191,-15820,0
-553,-100,7921,143,58,90,-7270,1200,-15849,0
-530,-106,7851,169,60,94,-7255,1199,-15887,0
-570,-119,7941,209,31,92,-7232,1184,-15797,0
-608,-180,7868,190,18,95,-7247,1162,-15809,0
-572,-124,8033,145,52,99,-7259,1177,-15863,0
-532,-151,7995,109,13,108,-7230,1191,-15749,0
-576,-158,7972,109,8,103,-7228,1182,-15746,0
-560,-128,7991,83,10,105,-7242,1174,-15686,0
-485,-119,8033,90,6,75,-7193,1217,-15657,0
-438,-137,8196,66,30,106,-7166,1202,-15542,0
-474,-171,8231,93,18,93,-7186,1211,-15553,0
-501,-129,8298,68,36,93,-7199,1231,-15567,0
-404,-122,8218,90,4,82,-7237,1207,-15573,0
-561,-113,8265,104,2,79,-7228,1165,-15629,0
-470,-134,8262,120,26,84,-7230,1173,-15605,0
-400,-30,8090,119,34,86,-7225,1175,-15620,0
-411,-125,8187,150,39,88,-7208,1194,-15682,0
-434,-212,8215,193,59,92,-7215,1200,-15592,0
-497,-165,8200,172,57,79,-7182,1216,-15587,0
-446,-180,8153,175,72,99,-7204,1205,-15583,0
-379,-171,8046,153,79,91,-7153,1200,-15590,0
-514,-262,8072,203,32,92,-7165,1226,-15622,0
-483,-222,8004,142,69,96,-7196,1166,-15585,0
-547,-196,7969,124,55,96,-7196,1199,-15560,0
-548,-238,8014,170,61,95,-7219,1202,-15556,0
-509,-257,7976,118,49,90,-7217,1204,-15531,0
-453,-186,7963,111,67,98,-7197,1211,-15558,0
-413,-125,7873,108,50,85,-7166,1204,-15564,0
-544,-152,7875,111,37,89,-7193,1205,-15544,0
-556,-159,7883,102,50,89,-7179,1201,-15537,0
-548,-38,7768,120,35,96,-7223,1211,-15504,0
-567,-121,7918,131,36,93,-7194,1189,-15567,0
-574,-90,7877,128,28,85,-7232,1190,-15522,0
-592,-64,7971,96,61,94,-7215,1196,-15548,0
-598,-52,7868,110,40,82,-7192,1220,-15517,0
-591,-94,7797,156,32,95,-7199,1208,-15530,0
-601,-79,7985,149,35,82,-7185,1194,-15537,0
-538,-25,7814,146,55,92,-7201,1232,-15571,0
-575,-140,7901,191,44,98,-7208,1229,-15546,0
-568,-116,7885,169,30,83,-7198,1227,-15608,0
-582,-82,7985,155,45,101,-7210,1242,-15551,0
-618,-64,7951,120,35,80,-7214,1197,-15544,0
-602,-118,7878,159,25,94,-7231,1222,-15567,0
-544,-111,7983,129,32,96,-7192,1253,-15565,0
-576,-51,7910,118,15,91,-7207,1221,-15564,0
-598,-170,8037,110,-2,111,-7214,1266,-15545,0
-601,-209,8081,71,-2,100,-7187,1273,-15532,0
-548,-145,8141,54,25,87,-7201,1230,-15586,0
-538,-126,8131,58,11,97,-7187,1203,-15632,0
-469,-115,8115,77,5,88,-7196,1211,-15575,0
-481,-169,8240,96,3,87,-7224,1196,-15570,0
-441,-68,8137,52,6,79,-7241,1204,-15562,0
-388,-122,8197,89,19,77,-7188,1215,-15527,0
-443,-189,8245,95,17,76,-7212,1244,-15551,0
-489,-109,8256,119,31,84,-7225,1214,-15548,0
-430,-76,8105,121,45,99,-7208,1213,-15607,0
-397,-97,8120,151,26,93,-7213,1207,-15569,0
-438,-184,8262,195,33,82,-7210,1201,-15570,0
-361,-165,8128,177,65,88,-7222,1215,-15582,0
-384,-183,8023,190,42,95,-7247,1227,-15595,0
-387,-311,8134,180,58,94,-7221,1206,-15525,0
-485,-233,8120,184,40,91,-7223,1241,-15570,0
-378,-206,8118,175,72,90,-7241,1223,-15556,0
-349,-194,7939,175,74,93,-7197,1249,-15608,0
-456,-260,8115,190,57,102,-7248,1223,-15627,0
-417,-158,7931,133,59,97,-7217,1272,-15538,0
-425,-220,7918,133,52,94,-7225,1204,-15551,0
-426,-223,8164,134,51,81,-7212,1214,-15584,0
-533,-215,7992,78,21,96,-7208,1238,-15569,0
-450,-120,8039,103,52,104,-7202,1233,-15553,0
-445,-83,8013,98,64,86,-7220,1228,-15565,0
-553,-193,8066,129,45,93,-7225,1229,-15489,0
-511,-115,7984,97,48,96,-7224,1231,-15543,0
-465,-108,7819,104,53,96,-7204,1270,-15520,0
-460,-138,7916,134,42,90,-7210,1216,-15531,0
-581,-98,7845,102,32,89,-7202,1245,-15546,0
-517,-49,7943,137,65,89,-7216,1199,-15576,0
-590,-80,8002,156,20,77,-7240,1226,-15516,0
-582,-65,7855,152,42,96,-7201,1241,-15501,0
-490,-70,7906,159,50,94,-7244,1225,-15508,0
-486,-71,7906,150,75,96,-7214,1251,-15546,0
-567,-67,7910,149,36,96,-7208,1238,-15562,0
-514,-43,7955,168,56,95,-7177,1227,-15558,0
-508,-103,7976,155,48,85,-7197,1262,-15589,0
-569,-91,7958,160,31,86,-7218,1220,-15562,0
-536,-61,7855,143,46,92,-7172,1237,-15552,0
-531,-54,7846,128,32,90,-7223,1213,-15553,0
-540,-83,7885,141,31,100,-7202,1229,-15548,0
-595,-99,7899,134,6,101,-7195,1243,-15650,0
-585,-139,8049,121,43,96,-7216,1260,-15580,0
-574,-132,7977,158,30,87,-7209,1288,-15579,0
-550,-82,7909,145,42,89,-7278,1276,-15566,0
-548,-78,7886,135,29,94,-7230,1280,-15598,0
-581,-78,7851,137,17,99,-7234,1245,-15546,0
-566,-78,7960,111,17,96,-7252,1242,-15558,0
-625,-118,7976,106,9,95,-7222,1219,-15576,0
-579,-177,8053,94,30,98,-7223,1258,-15616,0
-557,-153,8063,102,11,98,-7237,1246,-15575,0
-553,-142,7990,82,7,93,-7218,1234,-15591,0
-541,-124,8025,73,11,100,-7230,1232,-15582,0
-494,-122,8133,81,20,98,-7238,1229,-15626,0
-480,-100,8050,81,5,93,-7198,1235,-15642,0
-524,-134,8122,71,22,95,-7220,1236,-15556,0
-486,-170,8197,75,13,83,-7224,1245,-15569,0
-521,-134,8097,78,13,84,-7223,1231,-15590,0
-471,-129,8182,75,23,82,-7176,1236,-15610,0
-460,-93,8147,84,24,85,-7248,1235,-15624,0
-456,-116,8196,114,42,83,-7241,1226,-15588,0
-409,-64,8189,131,42,80,-7218,1251,-15618,0
-432,-128,8140,160,26,93,-7191,1270,-15557,0
-447,-188,8227,124,50,88,-7214,1250,-15621,0
-426,-115,8191,134,44,86,-7206,1223,-15601,0
-454,-144,8212,151,49,85,-7204,1216,-15618,0
-411,-137,8108,164,69,93,-7220,1246,-15625,0
-419,-199,8131,162,78,89,-7226,1227,-15621,0
-446,-167,8071,184,63,88,-7237,1239,-15579,0
-482,-218,8079,174,40,92,-7172,1246,-15623,0
-482,-237,8104,159,46,97,-7205,1239,-15570,0
-470,-244,8048,144,49,96,-7206,1236,-15583,0
-512,-201,7987,140,48,89,-7180,1251,-15595,0
-526,-183,7918,159,52,91,-7200,1213,-15620,0
-550,-226,8055,118,46,100,-7208,1230,-15610,0
-512,-184,8022,153,49,100,-7209,1236,-15617,0
-551,-198,7951,134,26,94,-7230,1218,-15582,0
-514,-188,7942,128,44,98,-7242,1273,-15576,0
-538,-150,7920,94,13,79,-7232,1237,-15572,0
-610,-144,7957,105,25,87,-7186,1243,-15531,0
-546,-108,7831,92,46,89,-7215,1229,-15546,0
-614,-67,7877,153,35,85,-7225,1236,-15466,0
-583,-66,7815,163,24,93,-7213,1275,-15435,0
-576,-78,7954,134,26,91,-7185,1252,-15391,0
-612,-177,7964,94,45,74,-7230,1222,-15369,0
-577,-109,7943,128,41,88,-7191,1226,-15425,0
-542,-67,7912,195,20,91,-7231,1215,-15407,0
-523,-124,7873,132,32,83,-7265,1225,-15422,0
-542,-101,7912,170,46,87,-7290,1228,-15449,0
-540,-75,7928,97,34,95,-7293,1253,-15390,0
-569,-111,7954,132,9,97,-7269,1267,-15455,0
-618,-165,8071,107,5,95,-7269,1232,-15433,0
-546,-204,8096,138,16,102,-7248,1216,-15386,0
-506,-177,8141,83,20,102,-7225,1247,-15472,0
-481,-193,8017,101,5,104,-7181,1247,-15490,0
-588,-160,8098,94,7,98,-7235,1261,-15476,0
-514,-118,8097,72,15,97,-7260,1232,-15522,0
-451,-109,8131,87,-2,86,-7229,1209,-15478,0
-467,-151,8233,105,17,86,-7218,1275,-15551,0
-447,-122,8230,104,26,76,-7227,1247,-15561,0
-449,-86,8212,124,25,83,-7209,1208,-15492,0
-409,-142,8210,137,-22,86,-7262,1234,-15658,0
-390,-86,8051,174,60,84,-7223,1220,-15708,0
-382,-118,8138,140,27,87,-7239,1206,-15639,0
-386,-141,8129,203,52,88,-7242,1216,-15690,0
-424,-76,8192,157,47,84,-7249,1219,-15693,0
-367,-162,8123,162,63,97,-7231,1244,-15678,0
-373,-190,8078,157,71,92,-7251,1187,-15700,0
-382,-195,8062,165,51,96,-7258,1237,-15707,0
-396,-197,7971,151,63,96,-7254,1210,-15714,0
-409,-179,7941,133,61,94,-7251,1235,-15721,0
-411,-201,8037,131,51,101,-7289,1239,-15661,0
-498,-209,7999,105,44,91,-7268,1218,-15667,0
-501,-226,8095,115,83,100,-7283,1238,-15711,0
-470,-183,8029,76,73,97,-7259,1196,-15715,0
-599,-241,8200,101,54,99,-7247,1229,-15686,0
-492,-123,7898,97,57,89,-7264,1238,-15711,0
-507,-138,7878,111,70,95,-7232,1226,-15703,0
-511,-122,8054,119,40,94,-7230,1224,-15709,0
-533,-110,7994,118,41,89,-7265,1226,-15671,0
-624,-174,8008,159,24,96,-7222,1226,-15741,0
-560,-101,7923,147,42,89,-7271,1222,-15737,0
-570,-100,7937,159,26,88,-7224,1219,-15753,0
-532,-96,7910,154,31,87,-7235,1220,-15707,0
-557,-110,7956,149,54,89,-7230,1218,-15729,0
-565,-103,7902,155,29,93,-7259,1193,-15773,0
-560,-106,7918,139,23,85,-7223,1233,-15745,0
-618,-163,8070,160,27,98,-7198,1235,-15711,0
-593,-173,7952,150,33,97,-7222,1205,-15678,0
-535,-96,8051,102,13,77,-7238,1206,-15749,0
-590,-157,7898,136,-16,82,-7257,1225,-15745,0
-478,-12,8095,97,48,98,-7259,1245,-15732,0
-558,87,8143,67,13,95,-7226,1233,-15691,0
-388,70,8068,119,18,112,-7229,1241,-15729,0
-506,62,8091,72,-1,87,-7230,1202,-15727,0
-715,-107,8031,121,-33,89,-7227,1233,-15744,0
-455,-100,8304,56,7,86,-7244,1230,-15712,0
-686,-90,8171,73,-20,106,-7205,1227,-15705,0
-629,4,7732,62,77,93,-7242,1249,-15714,0
-311,1749,6980,-306,151,88,-7300,1187,-15832,0
-485,744,8385,134,181,115,-7321,1108,-15735,0
-311,1766,7681,-39,171,78,-7303,1138,-15795,0
-484,2094,8027,44,65,100,-7318,1124,-15790,0
-480,1495,8596,106,83,115,-7349,1084,-15800,0
-40,2191,7504,165,87,108,-7345,1090,-15831,0
-485,1681,8203,205,-150,110,-7346,1137,-15782,0
-393,567,8589,272,-21,168,-7320,1114,-15780,0
-496,114,8090,417,-108,162,-7312,1180,-15752,0
-540,0,7420,346,-58,173,-7254,1148,-15741,0
-741,367,7798,309,-69,93,-7326,1174,-15695,0
-787,550,7456,-19,16,153,-7316,1171,-15687,0
-575,892,7882,-8,86,114,-7282,1123,-15733,0
-771,1168,8613,-35,178,86,-7276,1093,-15764,0
-717,1044,8640,132,177,95,-7321,1097,-15881,0
-336,675,8255,304,145,106,-7345,1131,-15811,0
-131,769,7975,-307,150,95,-7337,1220,-15763,0
-408,20,8610,552,-328,146,-7347,1266,-15707,0
-7,221,7403,231,-14,154,-7333,1290,-15689,0
-855,-406,8145,197,-157,105,-7277,1280,-15616,0
-906,-78,7554,65,-116,94,-7315,1298,-15621,0
-868,11,7767,-23,45,119,-7246,1263,-15679,0
-642,2434,7223,-579,78,5,-7306,1144,-15824,0
-518,2204,8555,-592,216,19,-7302,1114,-15817,0
-360,2367,8061,-31,241,75,-7339,1018,-15952,0
-244,1348,8230,289,151,113,-7338,1049,-15878,0
59,701,8089,455,28,71,-7319,1137,-15733,0
-289,229,8031,311,-134,89,-7335,1167,-15741,0
-458,961,7807,137,-186,100,-7308,1219,-15621,0
-710,1196,8321,101,-130,65,-7317,1200,-15580,0
-781,1427,7494,24,-40,123,-7344,1218,-15604,0
-1072,866,8439,84,135,91,-7359,1227,-15675,0
-767,630,8434,173,163,65,-7352,1277,-15710,0
-431,933,8179,188,257,92,-7386,1276,-15611,0
-609,-783,8861,1133,-1,164,-7343,1293,-15652,0
-902,-112,7710,227,-145,37,-7293,1304,-15697,0
-863,-1256,7402,194,-171,25,-7293,1338,-15697,0
-510,553,7574,-107,-56,5,-7305,1233,-15789,0
-720,-214,8170,100,-223,83,-7318,1251,-15813,0
-1389,6,7679,139,2,54,-7352,1283,-15748,0
-747,-36,8878,1165,469,65,-7366,1190,-15864,0
-564,2544,7790,207,127,-489,-7448,1058,-16011,0
-741,1846,7799,493,39,69,-7482,1032,-16037,0
-1636,375,9003,471,-204,6,-7412,1063,-16020,0
693,192,7190,528,243,54,-7442,1121,-16033,0
-976,1505,6691,80,91,21,-7442,1137,-15895,0
-453,1282,7647,142,-1,31,-7447,1092,-15892,0
-1008,835,8221,54,-135,-44,-7483,1071,-15820,0
-1309,809,8026,-29,-333,-83,-7421,1133,-15903,0
-1632,436,7037,552,400,6,-7495,1190,-15825,0
-1458,1647,8432,82,-304,-46,-7436,1124,-15857,0
-561,1139,8315,27,170,-13,-7406,1122,-15965,0
-629,1358,8767,123,19,55,-7423,1061,-16082,0
-1614,1395,7775,409,-74,106,-7447,1124,-15922,0
451,1143,7784,191,111,45,-7456,1014,-15959,0
-411,1325,8498,261,372,103,-7443,1010,-16048,0
-1999,1617,7844,178,-484,43,-7464,993,-16106,0
334,202,8245,395,332,189,-7495,1058,-16012,0
-765,1152,7816,106,23,192,-7447,1027,-16029,0
-956,1383,8080,-255,20,138,-7453,957,-16087,0
851,-15,8796,445,-2,144,-7471,972,-16212,0
-2259,1085,7323,-668,-392,95,-7447,1015,-15965,0
298,-296,5849,749,-406,118,-7427,990,-16015,0
-301,805,9344,-495,1347,165,-7478,962,-16012,0
-950,130,7967,-13,-845,-55,-7441,1189,-15770,0
99,442,8016,194,489,166,-7470,1117,-15870,0
-1601,-446,8208,-890,-704,-133,-7423,1138,-15780,0
-870,522,5057,261,596,164,-7478,1148,-15798,0
-1854,-960,7781,953,-46,59,-7477,1094,-15826,0
-2796,1457,8605,-181,-759,-138,-7532,1040,-15861,0
2171,2271,6997,-513,1445,79,-7506,1031,-15998,0
-3859,-666,7422,1769,-1137,-79,-7560,1104,-15735,0
2019,-336,6557,1249,721,17,-7461,1003,-16005,0
-501,364,7585,-503,-558,-231,-7498,1069,-15971,0
-315,-442,11859,636,-67,76,-7542,1021,-15920,0
-502,1868,8206,-849,123,106,-7479,926,-15866,0
-1845,-474,7498,1074,-360,83,-7516,867,-15919,0
1198,1330,5601,-821,139,67,-7594,986,-15817,0
-1437,1589,3618,-359,-400,-180,-7540,988,-15668,0
1872,733,10307,776,775,85,-7589,912,-15930,0
-3820,-1046,8598,1275,-91,243,-7638,1117,-15618,0
3443,423,8063,-1687,1481,192,-7534,1089,-15935,0
68,1417,8423,-175,742,75,-7567,1007,-15867,0
-2508,875,7261,-105,-1247,-33,-7576,1099,-15809,0
1473,726,8185,-529,2053,155,-7571,958,-15970,0
-1397,1703,8918,-557,-1699,-85,-7579,926,-15977,0
1345,771,7727,414,1185,43,-7601,923,-15830,0
-4963,584,8070,255,-959,-170,-7587,957,-15728,0
3063,991,6732,266,630,135,-7622,1026,-15848,0
-3666,839,7596,554,-785,23,-7569,1047,-15702,0
693,-20,8101,1059,258,103,-7580,978,-15895,0
1712,-715,8951,463,1020,128,-7609,1123,-15744,0
-2914,-131,7041,538,-1593,-54,-7513,1094,-15749,0
1337,146,7173,-277,1308,281,-7550,1097,-15827,0
-795,185,9497,-556,388,68,-7512,1057,-15718,0
39,1215,6725,113,-1520,-23,-7559,978,-15891,0
-1891,404,12264,733,2886,471,-7602,951,-15777,0
-4342,-1487,7567,113,-2525,-582,-7533,1108,-15680,0
1886,610,7976,-1453,2587,477,-7529,1083,-15831,0
-2998,443,12062,-849,-1631,-116,-7517,1158,-15717,0
2731,-572,6826,1167,-178,538,-7490,1070,-15921,0
-2215,377,8478,-345,-143,-31,-7506,1130,-15689,0
1989,1518,7104,-178,588,157,-7481,1022,-15958,0
-3089,527,9973,302,-994,-122,-7405,918,-16006,0
1402,-817,5627,1095,491,41,-7469,893,-15821,0
-3858,1309,7357,-223,-1066,-462,-7485,994,-15688,0
2323,-330,8234,1038,62,122,-7481,1031,-15832,0
-2164,263,6330,-68,298,-5,-7497,1011,-15740,0
1883,885,7069,-243,319,57,-7468,930,-15969,0
-2668,-226,9298,609,-498,126,-7471,961,-15753,0
1534,-16,6749,748,1593,256,-7479,931,-15923,0
-1011,624,7275,167,-202,50,-7421,1020,-15707,0
-283,774,7543,72,119,-54,-7420,1035,-15740,0
485,124,10238,64,384,61,-7395,1076,-15885,0
-1174,1068,9086,-437,-204,77,-7364,929,-15958,0
-305,1005,7354,69,-1208,-67,-7342,853,-16104,0
1165,91,7287,137,937,197,-7367,821,-15938,0
-1002,957,5553,-259,-134,106,-7352,728,-15900,0
-41,1025,9149,-126,124,39,-7475,815,-15800,0
-1077,533,8756,82,-69,83,-7441,800,-15712,0
360,613,9150,506,466,116,-7521,939,-15639,0
-1294,2026,6983,266,191,50,-7464,940,-15616,0
107,-452,6223,932,-334,107,-7491,948,-15685,0
-1760,-579,7181,1072,129,111,-7528,966,-15593,0
2022,525,7548,61,-1428,-36,-7472,945,-15705,0
-1242,799,11324,-991,2791,471,-7523,1084,-15381,0
-1460,1029,8414,-435,-2671,-44,-7514,1135,-15687,0
-866,-62,6275,396,102,149,-7547,1205,-15562,0
-184,274,8167,64,-155,52,-7522,1041,-15830,0
-1307,1273,8805,-389,249,119,-7539,1007,-15854,0
-1462,72,7766,526,-2190,-18,-7479,882,-15920,0
2252,280,9135,-245,1826,319,-7517,953,-15855,0
-3610,128,7684,-3,-2710,-84,-7498,944,-15702,0
139,-673,8746,753,1841,200,-7568,1044,-15655,0
-153,380,9252,-336,582,123,-7530,997,-15616,0
-453,-160,7962,-12,-99,49,-7550,1112,-15496,0
69,-513,11040,-62,412,175,-7551,1124,-15476,0
1808,1862,4910,-2113,-482,591,-7543,1261,-15675,0
-757,1443,6951,-798,558,55,-7506,1231,-15609,0
4459,1659,2196,595,-1475,430,-7515,1269,-15873,0
403,-1308,7172,3008,-6338,-1907,-7545,1053,-15733,0
1041,-1219,5300,2587,1445,394,-7500,1006,-15717,0
-3550,-1513,10780,393,-2908,-525,-7444,1165,-15494,0
4524,-1603,9803,52,1644,352,-7521,1071,-15717,0
-1324,-371,10056,-397,1515,220,-7537,1118,-15469,0
-2054,579,5772,322,-1264,-19,-7512,1092,-15585,0
1287,-1072,8003,111,1004,192,-7513,1136,-15465,0
-315,134,7443,341,825,151,-7537,1102,-15540,0
-971,156,8650,-437,-252,49,-7530,1141,-15498,0
-370,996,7030,-218,411,6,-7521,1029,-15643,0
-2420,204,8531,264,-755,-64,-7525,1117,-15465,0
-882,51,8427,372,304,173,-7529,1034,-15681,0
-2307,-665,8256,424,-1625,-72,-7459,1147,-15503,0
-3543,-699,10904,748,2369,150,-7526,1133,-15498,0
-147,486,7749,-474,-1044,-69,-7452,1153,-15529,0
153,381,7522,-145,-26,43,-7481,1036,-15628,0
-296,-892,7801,304,132,126,-7485,1144,-15534,0
-1524,-317,8084,-142,-983,-129,-7485,1100,-15571,0
1577,54,7947,-52,1833,260,-7528,1110,-15550,0
-2703,-167,9017,57,-916,-20,-7483,1082,-15616,0
-682,-221,6807,707,-557,83,-7502,1147,-15557,0
-218,-236,7384,261,216,60,-7481,1073,-15644,0
286,6,7127,250,-131,64,-7492,1136,-15522,0
-609,-656,8836,442,54,71,-7535,1101,-15585,0
-475,140,7913,59,-3,16,-7539,1184,-15534,0
-138,-846,8344,357,53,28,-7550,1138,-15641,0
1076,-610,7252,2,649,132,-7539,1184,-15563,0
-206,196,7287,-21,360,104,-7490,1110,-15532,0
-1218,-20,8292,-162,9,78,-7524,1191,-15498,0
-38,-135,8186,119,-71,84,-7503,1146,-15605,0
-933,-692,6718,186,274,149,-7507,1227,-15553,0
-219,-216,8039,149,106,51,-7475,1170,-15577,0
-1423,-506,7889,184,-435,52,-7482,1206,-15576,0
-827,-759,9569,193,85,112,-7483,1155,-15550,0
-1626,-1373,8653,875,-339,79,-7507,1218,-15602,0
-1373,-544,7942,-35,396,17,-7494,1221,-15535,0
-951,-588,8080,238,-385,-64,-7497,1258,-15675,0
-518,-513,8405,121,466,12,-7439,1193,-15651,0
-1142,-781,9620,347,-332,23,-7466,1148,-15760,0
-2109,-891,7365,747,291,133,-7466,1193,-15589,0
-478,-954,8197,-23,-441,-3,-7444,1096,-15774,0
-1391,-748,8837,-436,1671,365,-7507,1190,-15677,0
-548,-1040,6771,1147,-1287,0,-7477,1105,-15968,0
-1149,-165,12072,-322,335,286,-7495,923,-15997,0
771,-1949,8910,1961,1544,492,-7389,838,-15858,0
798,41,4459,152,943,401,-7464,952,-15741,0
-2711,-256,13794,602,-23,-83,-7386,907,-15662,0
-877,-1804,6237,4056,-550,420,-7417,1433,-15291,0
-1148,-4326,11297,169,876,491,-7262,1464,-15164,0
-207,-3070,10226,-1204,740,711,-7172,1411,-15370,0
-1677,-2556,7775,1237,1684,644,-7229,1541,-15058,0
-3307,-2493,7310,1048,-3671,-560,-7145,1453,-15249,0
41,-821,6448,323,1740,398,-7146,1369,-15107,0
-1006,-1167,8019,817,97,137,-7097,1377,-15116,0
-633,-1084,7702,-30,-29,-22,-7036,1472,-15032,0
354,-380,9700,-386,559,6,-7032,1504,-14909,0
-1443,-640,9911,-2,-1218,-112,-6992,1522,-14954,0
777,-554,5863,333,1294,159,-7004,1613,-14949,0
-1866,-174,7774,-761,-516,-188,-6965,1512,-15132,0
-997,-536,7223,269,-8,-61,-7029,1465,-15210,0
-2599,-642,9446,51,-91,11,-7051,1360,-15026,0
3252,-1255,9718,56,505,333,-7095,1452,-15137,0
-4885,-314,9151,-592,-469,-517,-7134,1528,-14863,0
698,-476,5909,469,-670,-93,-7109,1432,-15162,0
-242,-1183,7487,377,922,109,-7087,1455,-15010,0
-1540,-758,7947,176,7,-7,-7073,1466,-14948,0
-726,-752,8071,158,157,-1,-7058,1423,-14998,0
-627,-872,7912,246,92,5,-7101,1516,-14898,0
-716,-913,8440,186,-132,1,-7069,1525,-14972,0
-1359,-1210,8165,258,-115,49,-7082,1579,-14972,0
-858,-1553,8193,190,-206,-47,-7090,1593,-14937,0
-704,-1301,7864,113,133,-42,-7159,1530,-15052,0
-450,-1171,8878,-158,-242,-137,-7197,1541,-15008,0
-1098,-1376,9128,13,-18,-107,-7182,1495,-15075,0
-1155,-793,6456,117,-243,-186,-7250,1425,-15116,0
-1499,-1470,8218,30,0,-128,-7252,1478,-15065,0
-1198,-1568,8698,509,23,-105,-7221,1428,-15080,0
-1961,-1289,8189,-107,-95,-202,-7195,1411,-15126,0
-29,-865,7335,91,475,-118,-7257,1496,-15048,0
-1739,-2146,9173,54,141,-109,-7190,1473,-15012,0
-1155,-1412,7032,258,292,-57,-7222,1430,-15117,0
-901,-1864,7829,56,-284,-150,-7214,1544,-14969,0
-944,-1564,8325,252,59,-44,-7159,1485,-14998,0
-1245,-1314,6825,42,-304,-118,-7204,1493,-15077,0
-1033,-1577,7355,371,148,-5,-7251,1511,-15011,0
-899,-1287,7171,120,91,61,-7207,1503,-14957,0
-1297,-1176,6994,113,63,56,-7221,1459,-15021,0
-373,-1727,7848,226,-82,112,-7221,1426,-15179,0
-252,-1360,7901,19,193,156,-7217,1475,-15061,0
-329,-1238,8500,-68,-60,122,-7173,1479,-15040,0
-620,-860,7760,305,161,179,-7215,1444,-15165,0
-1372,-1465,8589,190,-175,100,-7191,1488,-15152,0
-848,-1291,8291,208,13,142,-7190,1506,-15044,0
-449,-615,8584,-223,227,86,-7138,1462,-15070,0
-954,-796,8268,145,-27,84,-7154,1406,-15168,0
-567,-800,8210,180,-29,109,-7168,1481,-15137,0
-735,-591,7953,42,13,98,-7142,1447,-15082,0
-89,-1323,8267,243,21,134,-7104,1436,-15113,0
-572,-1351,7884,359,92,158,-7116,1385,-15129,0
-623,-1663,8130,282,124,140,-7168,1448,-15132,0
-501,-655,7687,-20,5,71,-7156,1424,-15058,0
-406,85,7703,-68,170,79,-7156,1372,-15173,0
-703,553,8190,-265,83,50,-7132,1299,-15188,0
-1296,-168,8574,236,71,157,-7152,1301,-15183,0
-265,-700,7811,535,44,114,-7157,1357,-15114,0
-444,449,7641,-347,67,-4,-7194,1329,-15149,0
-444,687,7746,157,51,162,-7269,1274,-15210,0
-313,-308,8753,185,-26,122,-7252,1254,-15242,0
-413,683,7387,-166,159,155,-7296,1378,-15159,0
-995,-462,8373,254,-120,116,-7248,1318,-15133,0
691,-722,8932,500,290,154,-7295,1326,-15166,0
-174,-175,8440,-237,-50,124,-7309,1353,-15253,0
-455,-126,7841,145,52,128,-7323,1400,-15165,0
-616,-7,7577,157,-38,97,-7292,1394,-15113,0
-767,-522,8487,218,56,151,-7313,1373,-15171,0
-47,-141,8352,106,42,64,-7316,1364,-15241,0
-827,45,8107,303,147,156,-7391,1416,-15154,0
-950,-651,9559,255,-150,118,-7369,1419,-15091,0
-564,-897,7018,602,-178,170,-7338,1436,-15092,0
-454,-469,6069,19,-97,118,-7332,1463,-15154,0
-985,-1189,8388,124,-37,145,-7380,1552,-15036,0
-404,-1104,7103,-142,278,188,-7327,1579,-15031,0
-1160,-991,7346,-32,-251,24,-7273,1525,-15095,0
677,-715,8456,-134,704,195,-7279,1499,-15176,0
-1278,-946,10141,34,-13,133,-7287,1574,-15079,0
-602,-1250,7278,195,-284,154,-7295,1520,-15096,0
-296,-769,6581,197,212,204,-7270,1503,-15081,0
-1088,-868,7351,205,-168,138,-7281,1527,-15134,0
-109,-1495,9018,269,47,174,-7276,1517,-15218,0
-1244,-1270,8793,33,-2,123,-7329,1592,-15125,0
-760,-1357,8288,88,88,126,-7325,1510,-15166,0
-1032,-1165,8908,48,314,112,-7252,1411,-15301,0
-1116,-1204,8345,70,55,135,-7268,1336,-15339,0
-341,-1302,7972,-61,254,131,-7267,1324,-15394,0
-179,-1054,9764,-39,44,90,-7246,1343,-15246,0
-596,-1349,9855,200,19,142,-7197,1333,-15118,0
-766,-586,8704,135,-174,83,-7161,1370,-15091,0
-554,-924,5722,349,-287,202,-7214,1474,-15091,0
-285,-1344,6699,95,107,190,-7177,1465,-15163,0
-746,-1527,7718,90,58,111,-7263,1539,-15075,0
-495,-555,10513,-222,547,64,-7261,1509,-15092,0
-1183,-1474,9260,86,103,75,-7192,1481,-15091,0
-686,-1129,6558,304,255,128,-7119,1443,-15119,0
-377,-1624,7118,121,160,65,-7188,1440,-15173,0
-589,-1547,7817,-29,-33,-7,-7136,1447,-15148,0
831,-1826,10063,19,217,118,-7151,1542,-15105,0
-1839,-2352,8216,556,-1088,-3,-7192,1603,-14950,0
-435,-1922,6382,207,-329,82,-7186,1634,-14993,0
-1246,-1047,6146,113,-415,53,-7192,1634,-15028,0
-1068,-18,7074,-355,-137,63,-7212,1497,-15099,0
-1304,542,8353,-448,142,85,-7207,1480,-15149,0
-969,-210,9229,103,326,185,-7216,1429,-15206,0
-400,502,7974,42,573,206,-7203,1438,-15297,0
-141,554,7607,27,365,168,-7169,1450,-15194,0
-83,82,8060,135,190,181,-7223,1478,-15139,0
-381,-83,8673,65,-87,213,-7226,1448,-15125,0
-548,-197,8950,102,-203,187,-7173,1443,-15116,0
-596,-310,7097,246,-241,222,-7189,1450,-15096,0
-968,-368,7025,190,-99,223,-7223,1437,-15180,0
-972,-112,7195,82,-26,182,-7205,1435,-15161,0
-534,-402,8341,48,153,211,-7193,1471,-15171,0
-1079,-381,8309,107,258,216,-7205,1504,-15095,0
-795,-271,7797,223,278,269,-7185,1490,-15151,0
-226,-547,7581,167,323,243,-7164,1492,-15092,0
-378,-498,8382,105,179,205,-7117,1430,-15075,0
-155,-744,8804,170,32,162,-7145,1447,-15107,0
-442,-1081,8574,292,-69,130,-7127,1464,-15098,0
-420,-865,7425,155,-17,127,-7097,1446,-15186,0
-719,-1011,7056,64,49,133,-7074,1483,-15141,0
-653,-795,7672,-12,82,124,-7187,1519,-15103,0
-630,-839,9250,41,50,125,-7155,1451,-15109,0
-574,-415,8720,17,92,144,-7119,1440,-15074,0
-774,-568,7651,206,195,160,-7110,1385,-15124,0
-489,-362,7375,64,146,97,-7094,1385,-15109,0
-340,-699,7916,96,140,86,-7124,1428,-15046,0
-574,-432,8389,6,107,78,-7097,1391,-15191,0
-370,-446,8457,-1,69,88,-7119,1371,-15197,0
-572,-499,7792,39,38,99,-7137,1425,-15175,0
-706,-314,7342,48,76,130,-7114,1422,-15109,0
-496,-610,8607,106,122,147,-7143,1390,-15137,0
-282,-651,8835,233,147,95,-7117,1362,-15111,0
-524,-843,7831,251,192,71,-7110,1349,-15130,0
-527,-980,7654,112,11,31,-7129,1369,-15137,0
-151,-1561,7967,171,21,49,-7115,1384,-15157,0
-554,-1267,8197,92,-100,32,-7134,1346,-15173,0
-604,-1238,8284,142,-66,76,-7182,1343,-15193,0
-632,-1520,8396,249,-18,142,-7163,1439,-15087,0
-892,-1786,8169,284,-82,82,-7184,1486,-15027,0
-1067,-1673,7650,369,63,74,-7193,1556,-14955,0
-615,-1165,6995,121,283,49,-7197,1543,-14961,0
-323,-932,7471,32,356,68,-7196,1537,-15043,0
-506,-844,8706,34,294,63,-7172,1536,-14972,0
-337,-687,8832,128,194,77,-7176,1489,-15007,0
-259,-799,7933,246,-4,73,-7134,1446,-15040,0
-230,-588,7251,153,-38,66,-7120,1507,-15104,0
-319,-503,7626,115,-95,84,-7211,1477,-15072,0
-480,-444,8187,104,-155,85,-7175,1506,-15075,0
-718,-344,7846,121,-99,85,-7201,1478,-15072,0
-769,-431,7718,178,-20,109,-7179,1472,-15092,0
-650,-426,7309,169,72,93,-7190,1449,-15142,0
-509,-594,7809,199,99,72,-7151,1454,-15181,0
-510,-693,8108,186,143,69,-7176,1479,-15170,0
-474,-721,8119,170,116,73,-7196,1519,-15192,0
-412,-875,7676,180,60,105,-7149,1524,-15117,0
-408,-963,7584,172,-24,103,-7146,1549,-15127,0
-406,-1064,8011,122,6,116,-7198,1504,-15070,0
-517,-1058,8064,132,-29,108,-7179,1530,-15068,0
-590,-1048,8036,162,-28,90,-7167,1530,-15041,0
-727,-1006,7649,140,-1,101,-7151,1525,-15083,0
-639,-851,7534,81,19,108,-7113,1515,-15064,0
-657,-842,8049,61,9,107,-7163,1520,-15098,0
-567,-787,8490,49,31,110,-7139,1458,-15118,0
-664,-715,8352,64,-40,108,-7127,1476,-15134,0
-481,-690,7946,85,-18,106,-7088,1449,-15089,0
-523,-759,8025,107,-33,101,-7085,1458,-15044,0
-495,-752,7953,94,-5,91,-7093,1431,-15129,0
-529,-689,8180,98,11,92,-7092,1466,-15113,0
-598,-660,8129,103,42,96,-7086,1423,-15056,0
-423,-539,7920,83,59,98,-7100,1445,-15120,0
-495,-536,8107,86,72,92,-7131,1472,-15138,0
-355,-420,8197,78,104,99,-7106,1441,-15110,0
-338,-475,8225,151,63,102,-7150,1443,-15163,0
-377,-402,8210,135,62,97,-7084,1424,-15077,0
-418,-247,8003,153,54,111,-7125,1411,-15146,0
-376,-246,8067,118,57,98,-7095,1424,-15155,0
-428,-195,8177,136,59,97,-7105,1405,-15141,0
-623,-176,8213,126,54,108,-7115,1429,-15160,0
-604,-170,8039,105,70,111,-7080,1401,-15171,0
-503,-150,7923,103,66,103,-7137,1391,-15140,0
-559,-111,7970,110,64,97,-7103,1350,-15096,0
-516,-2,7908,112,73,100,-7082,1347,-15108,0
-470,57,7849,98,63,109,-7112,1368,-15162,0
-522,23,7769,134,79,101,-7093,1374,-15178,0
-451,-101,7900,134,58,106,-7073,1396,-15189,0
-494,-79,7936,136,59,102,-7085,1385,-15239,0
-487,-89,7726,145,66,101,-7084,1385,-15141,0
-462,-319,7911,164,76,109,-7076,1381,-15167,0
-448,-377,7917,132,92,115,-7080,1435,-15183,0
-408,-432,7882,153,76,105,-7062,1449,-15149,0
-462,-546,8024,133,53,107,-7077,1462,-15122,0
-454,-487,7966,116,46,114,-7113,1462,-15115,0
-513,-633,8095,114,-14,117,-7114,1444,-15139,0
-473,-630,8116,99,13,123,-7105,1471,-15134,0
-485,-606,8197,97,-18,106,-7072,1519,-15120,0
-538,-681,8233,114,2,114,-7086,1496,-15105,0
-428,-612,8142,98,8,106,-7080,1429,-15071,0
-556,-703,8314,68,7,97,-7088,1432,-15031,0
-337,-625,8170,94,33,84,-7073,1439,-15101,0
-355,-639,8188,116,7,83,-7085,1447,-15079,0
-352,-642,8236,113,33,83,-7101,1471,-15120,0
-298,-645,8129,130,16,81,-7098,1465,-15070,0
-353,-675,8275,140,20,86,-7104,1436,-15056,0
-294,-703,8072,173,51,85,-7056,1434,-15092,0
-334,-726,8143,187,50,90,-7074,1455,-15104,0
-343,-698,8104,152,85,94,-7061,1428,-15067,0
-314,-221,7825,124,50,96,-7091,1436,-15084,0
-465,-270,8207,106,61,101,-7116,1418,-15077,0
-384,-381,8361,141,107,102,-7134,1417,-15131,0
-378,-366,8274,187,80,104,-7135,1450,-15119,0
-256,-324,7973,164,83,93,-7116,1404,-15149,0
-364,-423,8005,153,44,90,-7135,1443,-15160,0
-454,-449,8224,149,20,94,-7087,1449,-15059,0
-361,-243,7904,111,7,101,-7094,1446,-15106,0
-461,-316,7894,121,-1,90,-7098,1448,-15038,0
-489,-345,7932,116,59,92,-7140,1442,-15096,0
-457,-233,7850,126,60,87,-7133,1426,-15064,0
-461,121,7800,76,58,76,-7115,1438,-15039,0
-549,35,7716,121,36,73,-7129,1447,-15077,0
-534,104,7781,142,46,77,-7112,1413,-15040,0
-440,75,7941,115,67,80,-7125,1451,-15096,0
-523,-4,7888,169,39,87,-7169,1428,-15092,0
-531,-44,8004,175,-13,100,-7147,1419,-15045,0
-401,96,7825,170,8,109,-7153,1427,-15142,0
-542,16,7965,168,-28,98,-7155,1401,-15108,0
-501,105,7728,124,22,95,-7179,1440,-15060,0
-687,-109,7948,103,-25,102,-7175,1431,-15105,0
-547,27,7990,71,5,109,-7180,1410,-15130,0
-521,-216,8202,81,26,103,-7143,1466,-15048,0
-517,66,8191,58,-5,80,-7175,1419,-15063,0
-475,-96,8063,93,-24,93,-7131,1474,-15062,0
-455,-70,8523,96,-5,82,-7130,1435,-15048,0
-527,29,8228,87,-8,81,-7121,1394,-15020,0
-626,181,7481,38,0,87,-7115,1434,-15031,0
-555,957,7202,88,87,79,-7186,1408,-15096,0
-211,1360,8309,-49,131,80,-7160,1382,-15157,0
-515,923,8566,110,29,78,-7148,1360,-15140,0
-467,132,8168,413,62,84,-7175,1379,-15178,0
3,56,7898,265,91,78,-7147,1349,-15160,0
-483,-69,7897,291,-63,87,-7148,1405,-15040,0
-495,-182,8512,245,-35,116,-7185,1437,-15064,0
-427,118,8331,116,-70,117,-7223,1437,-15076,0
-490,900,8009,-7,4,96,-7216,1431,-15134,0
-731,1223,7823,-13,116,81,-7218,1410,-15152,0
-594,937,7961,73,213,69,-7211,1360,-15263,0
-411,832,8631,244,102,63,-7200,1392,-15197,0
-88,346,8423,305,71,102,-7195,1436,-15181,0
-201,200,7860,271,-28,101,-7180,1450,-15152,0
-657,-98,7450,344,-195,127,-7224,1492,-15114,0
-582,-389,8300,204,-162,108,-7201,1504,-15115,0
-676,10,7630,190,-117,96,-7224,1523,-15068,0
-700,-168,7837,65,99,116,-7167,1530,-15058,0
-445,-129,7119,169,191,88,-7183,1444,-15078,0
-511,-114,8037,129,151,65,-7139,1439,-15163,0
-442,-370,8648,179,84,67,-7172,1443,-15185,0
-136,-3,7859,143,70,63,-7234,1421,-15184,0
-209,-178,7942,145,42,76,-7193,1405,-15241,0
-579,-257,8805,182,-60,91,-7159,1390,-15309,0
-309,-882,8214,199,-68,90,-7183,1422,-15280,0
-754,-628,7528,205,-145,76,-7219,1491,-15223,0
-735,-322,8095,124,14,78,-7221,1515,-15171,0
-577,237,7695,-87,166,43,-7215,1484,-15150,0
-738,572,8408,46,155,62,-7170,1413,-15150,0
-493,546,8282,-17,239,69,-7189,1422,-15175,0
-77,57,7683,174,226,64,-7163,1379,-15129,0
-161,-47,8022,279,47,41,-7147,1355,-15130,0
-384,46,8374,173,-27,60,-7182,1377,-15107,0
-229,5,7827,246,-109,36,-7162,1386,-15107,0
-664,-174,8278,70,-151,93,-7237,1357,-15148,0
-644,-18,7739,145,-44,77,-7294,1387,-15110,0
-600,-258,7685,114,98,98,-7282,1429,-15111,0
-313,471,8152,-16,65,59,-7229,1458,-15010,0
-77,-892,8087,703,84,90,-7249,1473,-14996,0
-600,-322,8364,-335,-142,53,-7268,1475,-14991,0
-221,-522,7449,291,94,89,-7283,1522,-14936,0
-1099,-143,7153,162,57,82,-7258,1513,-14965,0
-667,233,7895,-13,139,97,-7266,1513,-15027,0
-315,362,8724,44,49,110,-7269,1480,-15047,0
-404,453,8434,137,59,93,-7264,1468,-15140,0
-345,100,7820,292,-43,66,-7260,1468,-15175,0
-481,-283,7649,263,-62,92,-7252,1540,-15125,0
-601,-975,8393,390,-53,101,-7228,1582,-15059,0
-561,-1028,8587,262,-18,149,-7268,1530,-15016,0
-467,-1081,7500,107,47,140,-7258,1537,-15036,0
-453,-329,6703,-94,108,140,-7228,1518,-14997,0
93,-672,8132,-173,186,77,-7180,1472,-15026,0
321,-357,9166,-18,388,69,-7193,1453,-15091,0
257,-646,9330,282,-71,-14,-7190,1407,-15146,0
-4267,-771,10814,573,-254,98,-7195,1398,-15025,0
1411,-349,6863,611,-299,224,-7212,1419,-15135,0
-468,-180,5835,275,-57,168,-7170,1524,-15095,0
-662,-671,7216,168,-147,86,-7166,1569,-14955,0
-707,-1259,9703,159,-139,38,-7164,1514,-14983,0
-773,-1111,8776,65,80,81,-7159,1547,-14947,0
-823,-156,6671,104,145,79,-7190,1550,-14941,0
-842,-459,7825,46,288,175,-7135,1463,-14953,0
44,-367,8294,-26,332,131,-7117,1472,-14988,0
119,-735,8753,190,203,68,-7116,1449,-15006,0
-263,-646,8414,292,-19,57,-7118,1505,-14966,0
-288,-548,8186,327,-142,86,-7112,1498,-15021,0
-570,-332,8127,231,-138,134,-7104,1490,-15041,0
-712,-591,8753,98,-175,126,-7131,1486,-15083,0
-708,-840,8687,113,-76,121,-7118,1554,-14986,0
-534,-629,7659,177,77,96,-7134,1576,-14982,0
-341,-775,7216,263,166,101,-7136,1559,-14912,0
-75,-647,7612,149,266,75,-7143,1552,-14918,0
-362,-474,8701,89,162,60,-7131,1573,-14914,0
-448,-370,8954,133,44,86,-7138,1532,-14892,0
-295,-555,8196,113,-52,94,-7083,1496,-14962,0
-85,-500,7056,145,60,97,-7063,1512,-14974,0
-593,-578,7613,265,-71,79,-7099,1479,-15022,0
-773,-741,9226,32,-166,66,-7112,1487,-14975,0
-553,-632,6997,227,7,110,-7085,1456,-14960,0
-751,-601,8168,109,49,89,-7059,1450,-15009,0
-476,-269,7390,28,191,88,-7106,1450,-15088,0
-513,-782,9110,139,97,65,-7134,1465,-15136,0
-75,-368,8122,163,62,52,-7132,1476,-15054,0
-395,-366,8193,192,-52,38,-7108,1491,-15019,0
-415,-423,7477,181,-42,85,-7120,1537,-14997,0
-425,-634,8046,93,26,100,-7160,1508,-14967,0
-381,-591,8579,102,-9,67,-7145,1486,-14938,0
-566,-658,8244,215,97,97,-7176,1510,-14977,0
-289,-260,7472,122,91,65,-7165,1515,-14942,0
-239,-78,8021,172,85,61,-7125,1502,-14927,0
-473,-64,7789,115,91,71,-7152,1471,-14965,0
-236,-12,8733,117,72,85,-7135,1430,-14960,0
-149,124,7895,154,64,79,-7131,1455,-15003,0
-372,263,8549,76,-32,83,-7172,1479,-14976,0
-344,183,7623,145,30,84,-7170,1461,-15004,0
-586,-97,8415,174,-58,77,-7159,1441,-15040,0
-327,-88,8136,89,11,93,-7197,1418,-15101,0
-306,-41,7210,215,93,87,-7186,1435,-15098,0
-521,51,7641,192,111,90,-7210,1465,-15031,0
-282,313,7564,110,167,88,-7200,1536,-15027,0
-313,101,7686,93,200,98,-7164,1492,-14928,0
-322,374,8268,109,149,120,-7167,1473,-15012,0
366,303,7255,61,290,129,-7156,1513,-14914,0
-536,130,8357,120,28,57,-7109,1498,-14927,0
24,101,8416,74,39,76,-7125,1407,-15051,0
11,398,9659,80,-92,116,-7105,1460,-15043,0
-99,226,7006,352,-18,144,-7112,1450,-14932,0
-358,490,6874,-61,33,99,-7115,1458,-14975,0
-316,301,8115,-34,8,123,-7088,1480,-14990,0
112,355,8257,-54,18,66,-7092,1530,-14958,0
-339,321,8380,109,23,70,-7137,1565,-14896,0
-409,83,8384,260,0,126,-7154,1520,-14868,0
-102,16,7443,187,8,132,-7105,1524,-14865,0
-220,161,8120,166,30,99,-7099,1543,-14846,0
-254,113,7907,129,70,84,-7133,1525,-14915,0
-645,208,8314,62,66,87,-7136,1534,-14912,0
-367,348,7505,12,170,107,-7137,1464,-14940,0
-145,449,7672,132,46,82,-7108,1493,-15017,0
80,151,7333,139,64,103,-7145,1561,-14911,0
-28,-156,7750,186,24,97,-7168,1509,-14882,0
-192,-402,7097,133,7,103,-7157,1570,-14808,0
-420,-68,7680,45,18,127,-7148,1524,-14839,0
-452,-590,7979,142,-6,130,-7147,1576,-14882,0
-326,-631,7324,-4,-24,69,-7120,1552,-14893,0
-687,-589,7943,46,-23,94,-7131,1562,-14965,0
-533,-352,8322,26,56,82,-7125,1579,-14917,0
-226,-193,7893,113,194,72,-7137,1563,-14929,0
-29,-185,8373,161,216,81,-7125,1579,-14942,0
-180,-478,8679,130,137,47,-7091,1525,-14911,0
-20,377,8178,101,87,54,-7098,1493,-14961,0
-98,290,7762,229,33,114,-7114,1460,-15026,0
-50,407,8403,138,-60,54,-7091,1444,-15031,0
50,-210,7958,241,-20,111,-7116,1502,-14954,0
-4,-316,7720,261,77,116,-7140,1537,-14830,0
-521,-1282,8029,296,-18,150,-7101,1514,-14828,0
-251,-1294,7378,240,-39,109,-7076,1521,-14770,0
-614,-1193,8144,973,-182,62,-7116,1519,-14812,0
-395,-373,8202,292,60,43,-7101,1509,-14878,0
-558,62,8808,-38,114,41,-7083,1429,-14994,0
-139,-358,8462,86,30,70,-7118,1501,-14978,0
-134,422,6798,41,57,34,-7121,1540,-14933,0
-305,-356,7933,192,-10,90,-7105,1494,-14861,0
-271,329,8854,39,-61,81,-7144,1462,-14887,0
363,-404,9109,344,-27,80,-7156,1444,-14909,0
-124,-12,7839,215,-169,3,-7127,1488,-14916,0
-603,-221,7777,260,-233,48,-7144,1465,-14938,0
-144,35,6556,-5,-149,-1,-7135,1530,-14903,0
-504,-1115,8719,181,-29,53,-7128,1533,-14859,0
-1342,-892,9799,52,-98,73,-7173,1520,-14838,0
-734,-1199,7294,393,104,141,-7036,1488,-14846,0
-274,-1126,7370,146,365,90,-7065,1499,-14780,0
-386,-1576,7849,155,350,89,-7093,1501,-14879,0
-216,-1552,8249,-38,311,67,-7107,1437,-14999,0
86,-1469,8827,-60,222,74,-7113,1505,-15000,0
113,-1832,8936,225,77,106,-7106,1542,-14879,0
-258,-1595,8072,232,-113,103,-7111,1518,-14859,0
-253,-1516,7373,122,-280,65,-7112,1555,-14781,0
-440,-1831,7003,252,-134,158,-7089,1528,-14800,0
-614,-1741,7715,-19,-105,66,-7083,1513,-14835,0
-390,-1777,8211,77,268,132,-7099,1507,-14836,0
-379,-1723,7847,138,205,88,-7084,1508,-14857,0
-367,-1918,8365,211,119,58,-7104,1489,-14933,0
-323,-2095,8385,177,94,62,-7097,1473,-14996,0
-424,-1664,8114,166,36,91,-7121,1520,-14953,0
-309,-2004,8197,94,-71,96,-7078,1586,-14951,0
-490,-2014,8262,105,-86,135,-7091,1606,-14891,0
-289,-2188,7749,157,-20,146,-7093,1605,-14900,0
-468,-2107,7243,158,122,128,-7095,1620,-14812,0
-527,-1678,7219,52,170,92,-7090,1619,-14795,0
-356,-1373,7742,33,149,38,-7131,1617,-14823,0
-142,-688,8316,-215,238,53,-7134,1582,-14926,0
-265,-81,8530,-198,180,69,-7111,1581,-14954,0
-208,-240,8351,51,85,109,-7094,1532,-14955,0
294,-386,8331,146,70,114,-7134,1479,-14976,0
236,-435,8412,179,-51,81,-7112,1486,-14931,0
-90,-7,8159,221,-94,66,-7144,1498,-14876,0
-332,-226,8169,247,-117,101,-7130,1484,-14892,0
-408,-150,8133,134,-71,120,-7123,1503,-14939,0
-354,-224,7837,136,41,131,-7095,1491,-14974,0
-351,-217,8202,130,122,101,-7104,1531,-14912,0
-345,-169,8441,137,116,67,-7105,1522,-14925,0
-383,-209,7915,155,134,55,-7120,1510,-14975,0
-58,834,8035,37,186,55,-7105,1466,-14965,0
-285,384,7700,171,116,119,-7110,1474,-14919,0
-101,1449,8187,-174,43,105,-7111,1439,-14965,0
133,1441,8091,-10,80,110,-7142,1423,-15036,0
-270,720,8344,230,-47,94,-7086,1407,-14987,0
-276,15,8289,362,-40,86,-7114,1463,-14984,0
65,-14,7431,239,7,80,-7102,1445,-15019,0
-285,-980,8240,401,-165,87,-7098,1462,-14956,0
-234,-983,7816,215,39,130,-7090,1465,-14982,0
-165,-623,7588,215,68,119,-7147,1481,-14966,0
-287,-241,7605,43,68,102,-7120,1482,-15010,0
-561,-17,7935,-16,141,112,-7112,1431,-15041,0
-502,-287,8963,31,176,129,-7101,1432,-15008,0
27,252,8313,51,231,103,-7093,1370,-15069,0
-20,800,7869,139,155,83,-7096,1405,-15081,0
-218,1168,7824,25,87,75,-7063,1382,-15076,0
77,1151,8192,94,122,110,-7136,1421,-15096,0
-147,896,8011,173,-11,105,-7121,1448,-15029,0
-23,481,8327,210,-78,73,-7149,1479,-14999,0
-112,299,7734,142,-47,123,-7153,1452,-14963,0
-41,215,8259,226,-128,66,-7145,1445,-14965,0
-182,17,8257,240,-92,79,-7135,1498,-14933,0
-444,-116,7387,43,-83,108,-7109,1428,-14926,0
-465,-364,8196,689,-188,90,-7115,1444,-14970,0
-264,130,8996,223,223,182,-7086,1414,-15054,0
-177,196,8470,86,105,80,-7095,1409,-15025,0
-325,-314,8291,225,164,107,-7107,1410,-14994,0
-370,-140,8189,205,145,95,-7072,1345,-15063,0
-99,188,7553,203,170,90,-7095,1393,-15104,0
-144,-158,8661,57,160,116,-7098,1395,-15070,0
2,146,7796,70,148,105,-7149,1454,-15011,0
-223,194,7994,143,-54,87,-7108,1468,-14979,0
12,830,7501,-88,73,98,-7092,1426,-14951,0
-255,910,7987,102,-30,82,-7128,1393,-14956,0
-66,624,8662,77,-29,102,-7127,1342,-15005,0
-264,750,8870,147,-99,102,-7106,1368,-14973,0
-28,878,7381,198,-53,85,-7149,1329,-15028,0
-409,948,7523,166,-6,73,-7184,1319,-15002,0
-620,917,8385,15,18,67,-7160,1322,-15069,0
-385,514,8606,169,93,105,-7212,1317,-15040,0
-548,892,7817,229,27,59,-7248,1410,-15027,0
-347,862,7195,112,152,104,-7265,1352,-14948,0
-9,696,7529,106,147,134,-7232,1368,-14885,0
-447,521,8481,205,153,126,-7273,1366,-14892,0
-404,552,8094,237,77,112,-7291,1417,-14893,0
40,404,8074,273,94,87,-7268,1375,-14954,0
85,103,7496,57,-42,46,-7257,1441,-14939,0
-100,54,8246,36,-104,73,-7301,1522,-14843,0
-574,-431,8826,578,-564,76,-7330,1509,-14805,0
-138,-341,8437,204,-97,112,-7270,1538,-14799,0
-630,-62,7060,150,-44,70,-7270,1487,-14793,0
-858,-249,8038,235,-95,57,-7268,1485,-14846,0
-392,121,7951,126,-33,71,-7231,1489,-14875,0
-416,-37,8453,129,53,60,-7290,1547,-14928,0
-245,-18,7362,129,51,64,-7313,1547,-14835,0
-688,-327,8443,129,47,86,-7290,1544,-14815,0
-459,450,7872,141,19,65,-7258,1530,-14821,0
-415,350,8672,54,128,65,-7281,1512,-14819,0
-413,830,8251,161,84,49,-7308,1554,-14922,0
-297,487,7230,24,2,41,-7280,1529,-14993,0
-375,-77,8146,181,25,59,-7290,1581,-14867,0
10,227,8614,109,-51,69,-7283,1571,-14883,0
-287,935,8036,131,-81,52,-7238,1587,-14855,0
-505,621,8082,265,-15,79,-7242,1495,-14939,0
-242,390,8447,316,4,60,-7270,1549,-14878,0
-381,235,8159,312,29,77,-7276,1530,-14981,0
-293,169,8523,140,36,72,-7282,1587,-14900,0
-539,-25,7896,124,27,60,-7307,1574,-14855,0
-241,-311,7878,56,146,79,-7246,1530,-14867,0
-578,-302,8562,78,130,58,-7279,1543,-14918,0
-307,-471,8323,98,228,114,-7244,1489,-14981,0
-127,160,7122,102,198,87,-7259,1528,-14967,0
-215,2,8018,57,43,98,-7264,1550,-14880,0
153,-272,8610,73,91,100,-7249,1540,-14884,0
-646,-808,8662,295,-220,81,-7197,1504,-14907,0
-165,-341,8193,247,-112,107,-7257,1492,-14925,0
-651,-28,6894,106,-108,103,-7254,1508,-15020,0
-757,-716,7998,185,50,139,-7281,1518,-14928,0
-265,-716,8033,251,203,123,-7285,1549,-14840,0
-439,-241,7205,180,225,77,-7251,1514,-14906,0
-473,-12,7350,-10,245,69,-7218,1487,-14913,0
-401,-668,8311,184,217,53,-7233,1465,-14956,0
-400,-589,8959,38,54,88,-7231,1422,-14998,0
19,-431,8914,48,-21,111,-7227,1567,-15015,0
-89,-217,9049,139,-89,89,-7259,1520,-14901,0
-455,-423,7780,347,-151,109,-7267,1513,-14873,0
-629,-387,7268,62,-47,116,-7249,1489,-14897,0
-729,-568,8320,18,66,89,-7229,1513,-14933,0
-637,-716,7630,198,102,94,-7229,1477,-14922,0
-333,-826,7285,16,141,91,-7244,1543,-14937,0
-498,-947,8417,119,154,61,-7249,1589,-14817,0
-272,-1164,8311,231,179,113,-7219,1553,-14852,0
-331,-721,8607,171,60,112,-7249,1522,-14885,0
-386,-896,8106,188,-58,69,-7228,1514,-14881,0
-460,-903,7325,263,-77,110,-7245,1500,-14844,0
-363,-1299,8297,160,-39,139,-7219,1501,-14974,0
-695,-770,8215,-46,35,128,-7256,1551,-14925,0
-503,-1500,8520,215,8,112,-7275,1615,-14792,0
-519,-1758,7582,246,58,117,-7239,1639,-14788,0
-81,-1857,7530,185,241,105,-7254,1608,-14762,0
-56,-1868,7419,170,198,103,-7184,1566,-14831,0
-394,-1820,7547,120,104,61,-7204,1569,-14917,0
-39,-2065,8636,-10,105,67,-7206,1521,-14860,0
-586,-1750,8675,172,51,91,-7191,1527,-14900,0
-520,-1623,8007,268,-110,105,-7202,1564,-14969,0
-229,-1712,7846,206,-126,113,-7207,1573,-14863,0
-61,-1012,7736,227,18,117,-7183,1632,-14815,0
-674,-1683,8027,615,-96,117,-7223,1626,-14826,0
-846,-2201,7806,809,-156,129,-7189,1635,-14853,0
-575,-962,7204,65,20,75,-7180,1632,-14854,0
-518,-1004,7735,53,68,95,-7170,1635,-14795,0
-259,-1065,8163,56,135,96,-7144,1612,-14773,0
-172,-917,8511,103,132,90,-7180,1567,-14830,0
-437,-874,8262,162,123,71,-7140,1564,-14851,0
-362,-407,7743,99,36,92,-7172,1510,-14892,0
-100,-732,8190,230,64,112,-7141,1524,-14886,0
-197,-590,8470,164,5,79,-7213,1541,-14856,0
-414,-594,8587,182,-50,95,-7183,1562,-14863,0
-339,-845,7851,204,-36,108,-7189,1563,-14881,0
-487,-659,7797,123,-18,110,-7230,1574,-14921,0
-560,-730,7983,149,-9,106,-7204,1571,-14930,0
-549,-690,8419,102,77,106,-7221,1549,-14820,0
-448,-656,8211,146,117,90,-7225,1502,-14897,0
-497,-622,7950,159,121,87,-7209,1502,-14934,0
-344,-488,7727,167,91,83,-7177,1512,-14953,0
-368,-194,8076,100,89,81,-7218,1541,-14964,0
-324,-201,8239,124,20,98,-7198,1520,-14959,0
-463,-327,8358,114,-52,84,-7167,1512,-15013,0
-418,-490,8134,158,-16,102,-7176,1520,-14995,0
-504,-187,7697,145,2,99,-7169,1549,-15012,0
-549,-203,7914,107,37,99,-7181,1621,-14931,0
-454,-194,8101,100,56,105,-7208,1552,-14917,0
-555,-103,7923,85,57,89,-7231,1594,-14877,0
-365,-156,7870,135,97,83,-7195,1589,-14906,0
-379,-102,7908,145,71,78,-7206,1551,-14888,0
-317,-132,8149,108,56,78,-7200,1589,-14904,0
-430,-21,7941,161,34,84,-7231,1569,-14877,0
-424,52,7588,112,37,113,-7215,1602,-14898,0
-252,-123,7772,71,87,118,-7203,1572,-14895,0
-281,486,8407,-83,98,79,-7214,1554,-14884,0
-668,687,7681,45,42,47,-7221,1498,-14869,0
-320,632,8005,87,121,61,-7234,1548,-14875,0
-388,121,8153,174,95,67,-7235,1512,-14879,0
-46,27,7797,178,155,84,-7223,1530,-14822,0
-281,-16,8393,201,66,73,-7195,1488,-14866,0
-339,-45,8584,163,-74,76,-7219,1489,-14918,0
-100,-81,8038,178,-95,75,-7223,1504,-14954,0
-311,-154,8155,124,-213,55,-7218,1501,-14895,0
-458,-223,8373,58,-131,73,-7211,1547,-14926,0
-308,47,7500,127,-15,62,-7274,1553,-14852,0
-559,121,8151,119,-37,62,-7259,1504,-14885,0
-457,463,7675,125,52,56,-7265,1480,-14947,0
-774,486,8277,119,27,90,-7253,1476,-14910,0
-539,48,7839,232,125,102,-7239,1471,-14975,0
-380,152,8299,166,181,97,-7205,1480,-14943,0
-400,551,8023,185,169,73,-7275,1517,-14961,0
-278,703,7582,118,156,71,-7247,1563,-14896,0
55,659,8591,-66,212,80,-7271,1560,-15014,0
-259,999,8966,-39,49,44,-7280,1549,-14931,0
-345,823,8085,106,-84,69,-7304,1510,-14891,0
-262,175,7753,187,-139,76,-7234,1566,-14843,0
-33,223,7864,245,-167,47,-7271,1519,-14833,0
-401,-133,8172,340,-114,59,-7262,1516,-14845,0
-347,290,7116,-251,8,73,-7246,1539,-14835,0
-553,161,7065,-157,119,118,-7285,1525,-14852,0
-757,-236,7108,23,55,87,-7237,1491,-14927,0
-857,-390,7946,103,120,88,-7236,1489,-14946,0
-510,-319,8296,4,199,72,-7266,1511,-14952,0
-141,-224,8563,49,178,78,-7257,1537,-14919,0
-136,105,7647,112,86,39,-7303,1565,-14858,0
-337,-224,8448,66,-10,94,-7253,1557,-14853,0
-498,-77,8326,115,-63,105,-7289,1568,-14816,0
-206,28,7632,151,-38,97,-7278,1575,-14755,0
-671,217,8133,155,-102,94,-7240,1564,-14788,0
-591,516,7477,101,6,94,-7292,1539,-14847,0
-581,376,8465,9,72,96,-7279,1557,-14867,0
-351,272,8062,176,128,87,-7298,1519,-14799,0
-324,4,7541,48,147,90,-7270,1518,-14864,0
-452,324,7998,151,89,88,-7280,1553,-14845,0
-388,857,7975,156,63,72,-7319,1592,-14834,0
-365,1060,8512,94,91,92,-7341,1622,-14871,0
-332,862,8267,52,0,95,-7312,1574,-14826,0
-635,816,7745,61,-45,64,-7278,1596,-14741,0
-430,333,8030,234,-72,79,-7261,1547,-14804,0
-265,126,8126,172,-4,90,-7330,1574,-14846,0
-643,143,8562,204,-66,68,-7331,1558,-14846,0
-664,32,7548,241,4,106,-7340,1546,-14840,0
-717,-120,8782,177,-73,74,-7380,1616,-14874,0
-548,-231,7534,222,4,133,-7335,1648,-14782,0
-567,-99,7845,189,82,77,-7344,1642,-14757,0
-966,-436,7879,309,32,96,-7329,1637,-14744,0
-346,-508,7598,66,228,99,-7297,1630,-14785,0
-818,-568,8506,198,61,24,-7299,1611,-14807,0
-289,-157,7940,67,135,113,-7326,1612,-14815,0
-314,-138,8388,102,58,67,-7310,1581,-14866,0
-666,-165,8054,97,-9,94,-7343,1635,-14888,0
-254,-8,7657,-94,-9,77,-7306,1711,-14848,0
-872,-18,7684,72,-2,73,-7304,1680,-14818,0
-792,44,8379,-2,37,109,-7257,1679,-14854,0
-4,655,8768,100,-37,13,-7276,1704,-14835,0
-1298,477,8056,254,-7,120,-7253,1629,-14882,0
-1081,-47,8576,230,-142,132,-7238,1665,-14904,0
-320,259,7923,251,-168,90,-7285,1648,-14932,0
-1129,-437,8432,187,109,163,-7303,1663,-14972,0
-949,-188,7799,234,86,62,-7260,1714,-14959,0
-704,-417,7369,149,300,131,-7305,1707,-14854,0
-460,-496,9146,154,192,26,-7285,1691,-14878,0
-411,-531,8626,-24,112,85,-7256,1683,-14799,0
-461,23,8229,233,84,93,-7239,1595,-14888,0
93,-151,6101,266,78,109,-7207,1598,-14879,0
-225,380,6781,-220,-55,83,-7208,1569,-14957,0
-1074,-52,10643,161,-334,71,-7199,1563,-15010,0
898,241,8869,64,41,92,-7219,1590,-14948,0
-901,243,6935,129,8,74,-7195,1592,-14887,0
-1573,-160,7859,79,-122,65,-7231,1608,-14830,0
-628,-13,8560,199,26,98,-7205,1596,-14836,0
-786,-290,8028,189,68,150,-7185,1530,-14864,0
-608,-336,8143,166,274,143,-7209,1562,-14849,0
51,-116,8277,179,255,77,-7203,1535,-14898,0
-477,233,7708,101,30,28,-7236,1531,-14991,0
-475,-139,7341,90,-24,104,-7202,1554,-14968,0
-384,-322,8543,133,-67,127,-7231,1629,-14878,0
-334,-34,9058,133,-64,106,-7209,1598,-14878,0
-765,160,8367,172,-21,127,-7208,1583,-14874,0
-916,-215,8194,122,104,116,-7178,1533,-14826,0
-735,499,7677,35,122,107,-7199,1524,-14854,0
-615,213,8854,87,176,118,-7203,1532,-14930,0
-519,6,9066,208,76,89,-7218,1510,-14973,0
-295,-125,8080,269,97,100,-7206,1556,-14950,0
-172,168,7807,153,60,94,-7190,1607,-14830,0
-131,53,8121,201,98,108,-7155,1582,-14878,0
-135,74,8504,98,36,100,-7176,1592,-14843,0
-170,81,8649,58,71,108,-7136,1548,-14948,0
-589,268,7932,39,41,128,-7150,1538,-14911,0
-582,-411,8152,55,70,132,-7164,1540,-14927,0
-394,-336,7942,31,69,113,-7191,1535,-14979,0
-518,-690,8341,155,-9,84,-7214,1622,-14878,0
-287,-642,8411,246,42,77,-7232,1595,-14819,0
-434,-307,8197,213,39,78,-7193,1619,-14855,0
-450,-425,8196,216,55,90,-7172,1577,-14825,0
-784,-572,7951,117,27,113,-7134,1589,-14902,0
-581,-492,7896,-34,42,113,-7184,1541,-14936,0
-648,-357,8043,158,10,87,-7165,1524,-14984,0
-494,-426,7921,282,86,93,-7153,1571,-14991,0
-663,-575,7535,154,7,97,-7182,1603,-14879,0
-330,-296,7985,44,30,78,-7225,1596,-14836,0
-798,-525,8418,256,7,93,-7168,1583,-14810,0
-475,-348,8041,34,-16,110,-7175,1569,-14855,0
-426,-106,7503,163,35,93,-7173,1545,-14903,0
-739,-291,8448,69,-23,92,-7151,1552,-14874,0
-520,-294,8028,153,0,105,-7176,1527,-14958,0
-609,-280,8183,136,12,93,-7159,1548,-14958,0
-615,-507,7674,85,58,115,-7175,1618,-14932,0
-783,-453,7792,161,48,85,-7213,1605,-14848,0
-346,-506,8093,135,64,91,-7189,1614,-14847,0
-439,-407,8188,144,110,99,-7198,1592,-14826,0
-513,-147,7791,84,52,90,-7148,1570,-14886,0
-511,-313,7631,110,27,82,-7118,1551,-14885,0
-332,-587,7796,137,45,105,-7137,1529,-14834,0
-767,-413,8386,216,-49,93,-7112,1483,-14924,0
-399,-326,8387,201,-16,87,-7143,1506,-14948,0
-472,-53,8053,153,6,80,-7174,1584,-14891,0
-602,-67,8197,140,15,86,-7200,1605,-14833,0
-532,-69,7903,37,88,99,-7193,1572,-14831,0
-537,-224,8387,74,86,112,-7168,1563,-14833,0
-618,-155,8261,80,106,87,-7163,1532,-14847,0
-639,-392,8271,142,82,92,-7173,1506,-14896,0
-510,-439,7865,83,15,104,-7180,1535,-14870,0
-602,-644,8427,-14,-38,93,-7168,1541,-14888,0
-759,-644,8476,14,4,110,-7172,1514,-14916,0
-562,-431,8521,68,61,111,-7248,1561,-14936,0
-634,-373,8257,224,54,108,-7188,1608,-14839,0
-499,-140,8484,214,8,76,-7227,1649,-14779,0
-499,-221,7777,270,26,62,-7218,1645,-14760,0
-554,-308,7516,78,101,89,-7217,1638,-14807,0
-487,-637,8306,96,33,99,-7200,1609,-14795,0
-192,-43,7673,225,41,85,-7194,1580,-14823,0
-546,-601,8038,3,0,58,-7216,1598,-14868,0
-694,-598,8246,91,-37,109,-7203,1569,-14848,0
-515,-449,7162,179,77,91,-7181,1550,-14916,0
-687,-605,8679,106,68,118,-7197,1549,-14912,0
-417,-226,7823,210,57,51,-7163,1613,-14853,0
-763,-498,8483,203,23,75,-7235,1649,-14823,0
-537,-445,8033,53,81,95,-7175,1612,-14860,0
-463,-239,7274,173,28,75,-7190,1612,-14840,0
-505,-415,7542,198,19,104,-7177,1598,-14805,0
-689,-750,9088,96,13,109,-7210,1595,-14839,0
-589,-366,8204,67,-5,86,-7195,1549,-14855,0
-744,-410,8996,46,-60,61,-7211,1553,-14827,0
-481,-146,7670,171,19,71,-7222,1565,-14881,0
-724,-134,6840,192,15,81,-7244,1558,-14837,0
-734,-173,6883,245,18,86,-7202,1539,-14944,0
-544,-564,8273,201,89,94,-7240,1546,-14919,0
-719,-732,8529,275,78,96,-7182,1594,-14912,0
-768,-371,7611,215,22,67,-7215,1602,-14834,0
-638,-318,7763,47,-19,92,-7251,1648,-14875,0
-525,-381,8017,-20,-29,90,-7242,1623,-14834,0
-270,-409,8339,40,94,113,-7227,1593,-14794,0
-366,-436,8048,192,106,106,-7204,1602,-14822,0
-546,-91,8047,242,2,103,-7202,1597,-14830,0
-546,-393,8240,206,-72,93,-7218,1575,-14891,0
-743,-493,7978,154,-23,101,-7235,1589,-14946,0
-705,-449,8539,107,11,98,-7193,1566,-14917,0
-388,-543,7621,142,114,120,-7232,1552,-14874,0
-866,-500,8172,111,0,91,-7215,1554,-14925,0
-462,-211,7457,74,115,103,-7193,1526,-14990,0
-361,-326,8739,133,118,114,-7210,1505,-14955,0
-776,-404,8229,139,12,98,-7207,1563,-14928,0
-376,-317,7621,107,99,109,-7199,1606,-14905,0
-346,-525,8052,142,-13,100,-7194,1592,-14847,0
-586,-781,8161,135,-21,98,-7233,1611,-14828,0
-642,-814,8065,164,61,89,-7161,1612,-14876,0
-620,-773,8074,194,57,99,-7191,1576,-14838,0
-638,-643,7435,82,43,110,-7234,1619,-14825,0
-645,-884,7807,63,65,125,-7185,1570,-14850,0
-349,-714,8444,56,103,115,-7159,1560,-14847,0
-312,-824,8477,113,76,74,-7217,1548,-14886,0
-430,-753,7954,176,48,86,-7178,1532,-14895,0
-395,-988,7813,177,30,89,-7149,1557,-14954,0
-374,-932,7857,148,44,109,-7187,1531,-14903,0
-473,-977,8306,122,44,119,-7188,1537,-14896,0
-581,-913,8379,125,-21,89,-7135,1552,-14945,0
-633,-759,7754,133,-49,66,-7189,1525,-14916,0
-670,-694,7572,169,-11,75,-7205,1581,-14893,0
-614,-726,7742,150,0,103,-7180,1569,-14887,0
-654,-901,8138,148,6,112,-7197,1551,-14852,0
-660,-976,8029,152,27,108,-7194,1571,-14875,0
-685,-1012,7855,113,20,103,-7192,1533,-14884,0
-665,-519,7671,55,22,83,-7221,1525,-14884,0
-554,130,8073,11,58,80,-7204,1484,-14867,0
-584,32,8429,0,65,97,-7242,1515,-14897,0
-575,-72,8571,69,67,106,-7253,1538,-14971,0
-399,102,7978,116,26,94,-7197,1558,-14935,0
-362,-43,8000,146,-5,86,-7186,1561,-14926,0
-537,-227,8288,170,-23,80,-7185,1582,-14908,0
-513,-130,8339,186,-29,100,-7207,1575,-14916,0
-488,-47,7919,163,2,99,-7181,1574,-14905,0
-540,-190,7917,162,58,83,-7166,1549,-14922,0
-649,-249,8097,126,89,81,-7179,1527,-14943,0
-479,-133,8198,143,109,92,-7221,1540,-14955,0
-356,33,8197,150,109,90,-7231,1543,-14945,0
-410,-160,8097,177,96,107,-7206,1517,-14922,0
-378,-234,8091,179,58,103,-7199,1491,-14928,0
-416,-175,8017,158,22,97,-7191,1511,-14913,0
-557,-182,8170,133,0,104,-7221,1534,-14912,0
-629,-274,8129,113,0,105,-7223,1519,-14934,0
-550,-245,7987,95,38,109,-7233,1570,-14928,0
-643,-169,7840,86,60,88,-7209,1561,-14858,0
-600,-100,7933,86,89,91,-7185,1490,-14908,0
-535,-115,8099,123,78,86,-7208,1524,-14875,0
-540,-86,8016,126,67,89,-7198,1550,-14860,0
-438,-78,7910,132,54,90,-7202,1551,-14900,0
-481,-131,7958,136,15,79,-7228,1522,-14894,0
-520,-106,7881,140,0,85,-7242,1509,-14864,0
-571,-30,7802,143,6,82,-7210,1562,-14939,0
-580,-48,7793,154,18,98,-7183,1558,-14923,0
-551,-75,7723,163,68,87,-7207,1541,-14912,0
-600,-80,7926,146,64,77,-7190,1534,-14891,0
-580,-89,7873,180,58,87,-7202,1503,-14887,0
-596,-110,7995,168,70,90,-7186,1541,-14924,0
-564,-138,8077,150,55,94,-7195,1532,-14929,0
-521,-154,7897,139,32,93,-7198,1535,-14960,0
-606,-184,8008,129,6,94,-7198,1568,-14902,0
-653,-159,7974,115,7,100,-7177,1515,-14891,0
-717,-182,8187,91,-4,101,-7224,1523,-14943,0
-692,-154,8086,90,8,105,-7203,1501,-14922,0
-619,-129,8114,78,17,96,-7182,1539,-14951,0
-606,-125,8195,107,41,97,-7181,1497,-14953,0
-525,-93,8192,81,23,95,-7223,1517,-14952,0
-607,-119,8254,79,15,97,-7206,1542,-14907,0
-517,-85,8130,96,7,89,-7248,1513,-14935,0
-494,-45,8163,81,4,82,-7186,1496,-14898,0
-457,-59,8237,109,21,82,-7215,1516,-14906,0
-490,-28,8197,147,1,84,-7210,1526,-14873,0
-478,-60,8203,131,24,82,-7234,1529,-14924,0
-406,-39,8032,159,38,91,-7213,1518,-14876,0
-410,-91,7963,185,47,85,-7227,1541,-14947,0
-462,-178,8047,158,53,90,-7246,1519,-14933,0
-478,-40,8096,176,42,86,-7224,1523,-14887,0
-482,-175,8130,183,43,92,-7191,1535,-14869,0
-450,-188,8142,178,44,90,-7208,1529,-14869,0
-482,-237,8050,177,53,99,-7240,1557,-14896,0
-467,-249,8037,154,50,103,-7199,1560,-14889,0
-496,-239,8136,149,45,85,-7237,1558,-14937,0
-569,-229,8115,121,48,100,-7247,1522,-14928,0
-546,-177,8134,119,50,88,-7234,1552,-14864,0
-538,-168,8013,114,63,102,-7223,1489,-14904,0
-486,-111,7975,134,53,99,-7220,1527,-14858,0
-563,-237,8097,120,41,92,-7246,1568,-14898,0
-519,-204,8017,91,47,100,-7208,1521,-14923,0
-514,-132,7956,84,31,95,-7216,1584,-14912,0
-520,-141,7992,96,32,91,-7228,1564,-14860,0
-538,-89,7847,132,31,86,-7226,1520,-14866,0
-563,-60,7914,124,39,88,-7248,1512,-14922,0
-512,-22,7886,154,38,92,-7222,1484,-14843,0
-521,-84,7789,167,52,89,-7238,1518,-14850,0
-600,-100,7920,177,51,87,-7243,1521,-14874,0
-584,-97,7927,165,40,81,-7232,1523,-14858,0
-555,-80,7895,146,42,88,-7179,1503,-14898,0
-532,-33,7826,158,47,90,-7211,1515,-14869,0
-514,-59,7841,147,62,92,-7223,1535,-14854,0
-572,-77,7922,155,36,92,-7201,1513,-14848,0
-657,-120,7959,132,25,100,-7250,1517,-14860,0
-637,-161,8021,122,28,97,-7246,1543,-14822,0
-634,-208,8122,99,15,99,-7246,1536,-14877,0
-658,-172,8152,78,13,89,-7234,1508,-14824,0
-632,-137,8147,73,28,97,-7211,1502,-14840,0
-634,-91,8196,97,19,91,-7214,1532,-14850,0
-619,-84,8194,83,18,93,-7232,1539,-14864,0
-618,-99,8197,61,4,87,-7251,1498,-14844,0
-473,-64,8199,127,15,84,-7254,1492,-14884,0
-520,-25,8144,107,35,85,-7223,1505,-14861,0
-526,-49,8254,112,12,91,-7224,1526,-14910,0
-447,-60,8025,133,26,85,-7241,1511,-14845,0
-447,-23,8084,152,42,86,-7203,1481,-14886,0
-421,-33,7958,161,56,82,-7244,1484,-14934,0
-429,-105,8135,173,33,86,-7212,1524,-14859,0
-525,-114,8148,157,50,91,-7218,1526,-14821,0
-448,-71,8040,169,50,96,-7231,1514,-14870,0
-428,-154,8040,177,59,92,-7215,1495,-14901,0
-474,-170,7970,163,78,95,-7219,1515,-14883,0
-534,-159,7999,157,58,91,-7213,1518,-14924,0
-526,-219,8044,144,46,105,-7218,1516,-14894,0
-530,-256,8147,132,54,97,-7241,1547,-14881,0
-604,-252,8092,130,40,101,-7209,1522,-14867,0
-585,-223,8076,117,42,98,-7209,1511,-14878,0
-657,-200,8087,120,26,90,-7205,1512,-14890,0
-580,-140,7998,105,31,101,-7231,1491,-14861,0
-482,-80,7800,104,42,91,-7212,1511,-14925,0
-550,-82,7931,113,38,94,-7196,1510,-14920,0
-602,-112,7985,119,40,92,-7205,1542,-14892,0
-557,-100,7966,121,31,94,-7231,1545,-14908,0
-528,-114,7947,128,28,80,-7221,1546,-14906,0
-541,-78,7901,138,29,87,-7226,1534,-14894,0
-533,-60,7755,159,25,86,-7261,1526,-14938,0
-538,-17,7689,174,41,80,-7241,1524,-14924,0
-584,-64,7889,155,42,87,-7201,1509,-14918,0
-581,-118,7917,160,50,89,-7215,1540,-14879,0
-543,-120,7867,156,36,89,-7254,1529,-14888,0
-647,-177,8004,173,45,92,-7211,1547,-14878,0
-656,-113,7914,161,35,92,-7214,1518,-14887,0
-632,-141,7996,143,22,93,-7225,1529,-14898,0
-584,-129,7974,122,40,96,-7244,1529,-14890,0
-631,-163,8082,98,25,96,-7234,1541,-14941,0
-645,-141,8120,98,19,89,-7250,1516,-14938,0
-661,-158,8206,91,15,98,-7247,1548,-14896,0
-638,-133,8297,75,12,94,-7231,1525,-14944,0
-506,-95,8170,93,20,93,-7245,1546,-14939,0
-499,-62,8134,94,11,84,-7257,1556,-14907,0
-495,-47,8137,107,15,75,-7259,1561,-14874,0
-445,-16,8120,133,15,86,-7245,1552,-14898,0
-409,-30,8116,140,18,83,-7252,1567,-14857,0
-375,-27,7961,132,25,81,-7223,1550,-14923,0
-452,-34,8122,139,32,83,-7244,1582,-14893,0
-397,-42,7985,159,43,89,-7247,1526,-14885,0
-417,-64,8030,190,62,91,-7262,1546,-14902,0
-452,-156,8120,163,40,89,-7245,1550,-14891,0
-411,-148,8010,182,57,98,-7204,1548,-14901,0
-436,-211,8023,161,59,92,-7253,1554,-14918,0
-514,-205,8083,160,43,94,-7197,1570,-14901,0
-551,-264,8141,147,40,99,-7185,1584,-14923,0
-533,-273,8131,121,49,99,-7199,1558,-14940,0
-541,-251,8137,104,39,95,-7206,1568,-14935,0
-584,-180,8131,98,34,91,-7223,1553,-14942,0
-505,-134,7918,108,42,91,-7219,1543,-14958,0
-504,-113,7966,102,36,93,-7218,1584,-14929,0
-464,-78,7905,129,42,90,-7249,1577,-14889,0
-490,-72,7856,118,42,91,-7197,1543,-14890,0
-548,-58,8011,110,35,84,-7225,1545,-14932,0
-526,-79,7928,130,35,79,-7184,1569,-14872,0
-525,-65,7914,135,21,85,-7234,1570,-14924,0
-497,-23,7735,134,39,89,-7222,1564,-14891,0
-514,-23,7789,163,40,93,-7213,1552,-14973,0
-531,-54,7796,163,43,93,-7204,1539,-14888,0
-584,-95,7869,152,39,87,-7229,1585,-14875,0
-586,-150,7983,147,35,100,-7224,1543,-14988,0
-606,-173,8004,133,22,94,-7196,1545,-14894,0
-645,-176,8095,104,15,94,-7213,1540,-14893,0
-659,-178,8174,136,45,89,-7226,1542,-14822,0
-660,-157,8021,122,23,99,-7225,1535,-14866,0
-655,-181,8144,96,31,101,-7212,1520,-14921,0
-684,-153,8197,103,11,103,-7206,1517,-14874,0
-666,-167,8195,97,4,93,-7177,1579,-14930,0
-573,-125,8167,76,28,100,-7222,1562,-14858,0
-589,-93,8222,90,-3,87,-7212,1560,-14857,0
-540,-82,8189,92,13,80,-7169,1559,-14885,0
-486,-50,8167,103,4,79,-7179,1572,-14926,0
-443,-18,8126,133,25,87,-7209,1554,-14899,0
-437,-13,8065,174,47,85,-7236,1580,-14863,0
-480,-91,8099,180,16,89,-7203,1530,-14902,0
-458,-122,8108,133,35,83,-7222,1527,-14881,0
-432,-41,8060,163,33,84,-7215,1529,-14901,0
-416,-72,7993,161,49,94,-7196,1512,-14924,0
-454,-110,8033,182,57,91,-7207,1542,-14872,0
-504,-148,8107,163,58,93,-7223,1546,-14848,0
-507,-203,8062,174,43,99,-7202,1550,-14909,0
-524,-230,8077,160,44,97,-7158,1567,-14886,0
-550,-235,8081,150,59,96,-7224,1593,-14897,0
-607,-261,8157,134,39,100,-7206,1579,-14914,0
-616,-193,8108,122,30,100,-7200,1549,-14865,0
-554,-151,7884,94,50,97,-7220,1539,-14865,0
-576,-128,7938,114,36,97,-7229,1564,-14856,0
-603,-106,8097,114,40,94,-7247,1562,-14847,0
-623,-195,8117,95,28,102,-7223,1580,-14832,0
-546,-131,7979,124,37,90,-7218,1523,-14862,0
-523,-150,7898,103,51,87,-7222,1561,-14828,0
-563,-78,7904,130,26,81,-7216,1569,-14891,0
-558,-79,7764,139,39,85,-7226,1567,-14895,0
-542,-43,7750,143,28,83,-7220,1532,-14855,0
-508,-29,7741,149,59,90,-7217,1559,-14878,0
-576,-35,7811,171,37,86,-7202,1547,-14876,0
-604,-122,7928,167,38,83,-7237,1548,-14896,0
-549,-144,7836,166,41,80,-7206,1587,-14875,0
-555,-104,7840,177,41,86,-7220,1553,-14849,0
-561,-111,7866,149,47,88,-7204,1553,-14912,0
-599,-82,7905,136,33,88,-7165,1603,-14864,0
-610,-142,7937,126,31,95,-7205,1574,-14919,0
-582,-140,8036,127,33,99,-7201,1552,-14933,0
-688,-208,8206,107,19,100,-7215,1590,-14859,0
-653,-173,8199,83,14,94,-7234,1573,-14871,0
-608,-156,8262,83,2,84,-7189,1564,-14906,0
-532,-121,8197,77,14,99,-7196,1563,-14851,0
-498,-67,8082,77,16,100,-7224,1573,-14871,0
-530,-73,8197,72,23,89,-7215,1589,-14822,0
-553,-46,8199,91,8,91,-7150,1539,-14837,0
-524,-87,8207,105,3,79,-7184,1565,-14876,0
-407,-67,8143,121,25,91,-7210,1543,-14853,0
-459,-56,8189,133,16,79,-7222,1542,-14926,0
-444,-33,8096,150,14,87,-7210,1504,-14863,0
-389,-12,7956,167,39,82,-7207,1557,-14873,0
-406,-81,8018,165,49,90,-7210,1564,-14913,0
-398,-139,8016,175,66,90,-7213,1535,-14905,0
-489,-215,8075,165,34,89,-7185,1526,-14850,0
-463,-241,8134,171,58,90,-7186,1544,-14889,0
-494,-174,8086,159,60,88,-7219,1557,-14864,0
-484,-225,8071,148,41,86,-7225,1534,-14876,0
-461,-215,8008,150,53,87,-7211,1560,-14890,0
-534,-228,8163,129,50,95,-7205,1526,-14936,0
-579,-232,8127,121,29,98,-7232,1592,-14882,0
-589,-212,8138,104,30,98,-7231,1574,-14923,0
-525,-178,8071,111,42,98,-7190,1583,-14944,0
-471,-126,7948,95,59,99,-7238,1578,-14873,0
-516,-125,7975,123,30,83,-7220,1555,-14901,0
-469,-100,7913,120,52,92,-7232,1559,-14908,0
-510,-58,7842,106,31,90,-7261,1562,-14920,0
-525,-117,7990,125,44,94,-7218,1544,-14886,0
-510,-100,7930,139,31,88,-7241,1527,-14875,0
-556,-81,7924,143,33,83,-7224,1551,-14852,0
-536,-52,7814,165,34,89,-7206,1550,-14865,0
-563,-60,7850,174,28,77,-7237,1538,-14888,0
-560,-79,7830,148,50,91,-7237,1532,-14906,0
-526,-40,7847,155,49,90,-7242,1522,-14886,0
-563,-99,7881,152,38,92,-7227,1513,-14881,0
-605,-118,7889,138,35,96,-7195,1506,-14863,0
-653,-170,8119,159,42,99,-7252,1531,-14914,0
-653,-187,7991,134,21,94,-7211,1522,-14861,0
-669,-164,8053,114,15,96,-7199,1552,-14859,0
-608,-173,8070,97,26,103,-7179,1556,-14837,0
-620,-140,8153,83,26,97,-7183,1498,-14856,0
-671,-134,8200,64,1,103,-7231,1530,-14888,0
-583,-73,8201,85,12,91,-7182,1570,-14886,0
-571,-96,8198,93,9,88,-7243,1533,-14872,0
-492,-76,8197,101,24,87,-7205,1568,-14894,0
-488,-46,8176,110,17,77,-7248,1541,-14880,0
-470,-42,8170,134,28,86,-7206,1542,-14888,0
-437,-23,7976,125,13,81,-7197,1559,-14871,0
-438,-21,8176,115,32,81,-7222,1576,-14912,0
-428,1,8076,151,36,92,-7270,1604,-14834,0
-474,-35,8067,174,42,96,-7221,1543,-14870,0
-431,-85,8095,167,45,93,-7216,1599,-14843,0
-423,-139,8034,174,61,91,-7235,1551,-14879,0
-494,-169,8018,161,66,94,-7234,1571,-14842,0
-514,-186,8020,160,43,93,-7257,1589,-14864,0
-561,-216,8123,153,40,97,-7192,1554,-14837,0
-566,-243,8126,140,45,100,-7211,1527,-14857,0
-623,-231,8138,123,37,102,-7209,1571,-14887,0
-635,-215,8167,107,34,98,-7216,1538,-14859,0
-580,-191,7996,94,33,98,-7272,1566,-14928,0
-572,-167,7968,113,41,98,-7244,1563,-14886,0
-547,-177,8015,110,42,97,-7208,1570,-14891,0
-630,-153,8004,111,42,95,-7217,1567,-14928,0
-589,-120,7946,117,27,93,-7220,1550,-14875,0
-530,-108,7913,137,33,96,-7212,1567,-14900,0
-531,-107,7931,142,37,86,-7205,1557,-14857,0
-521,-56,7811,128,35,86,-7218,1550,-14882,0
-563,-29,7809,161,24,86,-7190,1600,-14870,0
-532,-51,7765,172,42,88,-7224,1576,-14891,0
-547,-57,7772,162,39,81,-7202,1579,-14909,0
-582,-85,7868,158,51,88,-7196,1558,-14968,0
-580,-136,7975,154,42,86,-7199,1546,-14891,0
-647,-175,8005,165,36,85,-7230,1524,-14938,0
-630,-180,8092,158,50,83,-7198,1562,-14895,0
-669,-141,7929,141,27,80,-7172,1583,-14909,0
-640,-166,7978,122,26,92,-7182,1579,-14894,0
-650,-128,8048,101,20,97,-7174,1580,-14914,0
-686,-185,8251,90,15,97,-7199,1596,-14922,0
-628,-127,8209,83,16,94,-7178,1602,-14901,0
-590,-106,8200,79,18,89,-7187,1609,-14821,0
-563,-109,8198,92,24,92,-7229,1599,-14901,0
-523,-77,8198,89,5,86,-7223,1585,-14898,0
-491,-43,8214,118,12,83,-7228,1578,-14909,0
-412,-36,8096,130,25,81,-7220,1580,-14905,0
-433,-7,8031,142,15,82,-7212,1573,-14869,0
-390,-12,7980,171,60,87,-7197,1551,-14906,0
-458,-95,8100,169,19,83,-7207,1553,-14875,0
-434,-143,8098,153,37,78,-7173,1554,-14892,0
-389,-178,8060,167,34,78,-7229,1566,-14834,0
-459,-75,7980,194,42,91,-7209,1540,-14892,0
-428,-153,7969,176,60,95,-7209,1515,-14888,0
-485,-176,8078,170,37,94,-7210,1602,-14858,0
-489,-213,8083,161,45,92,-7194,1606,-14870,0
-516,-238,8103,135,43,94,-7211,1575,-14928,0
-550,-253,8190,150,43,91,-7168,1595,-14849,0
-530,-243,8068,112,45,105,-7205,1599,-14933,0
-549,-213,8099,93,29,99,-7214,1594,-14858,0
-533,-167,8032,100,38,103,-7210,1565,-14849,0
-521,-116,7975,102,33,87,-7215,1587,-14945,0
-528,-98,7949,118,33,89,-7188,1558,-14890,0
-463,-83,7952,136,32,99,-7219,1543,-14904,0
-535,-110,7937,106,35,95,-7159,1534,-14904,0
-508,-59,7871,122,42,87,-7202,1559,-14915,0
-541,-87,7933,140,17,76,-7210,1572,-14946,0
-523,-42,7808,147,34,83,-7204,1547,-14939,0
-472,-20,7739,163,51,85,-7234,1533,-14942,0
-545,-46,7860,151,33,87,-7211,1586,-14971,0
-541,-92,7868,168,42,86,-7171,1598,-14876,0
-621,-159,7958,136,30,85,-7198,1574,-14930,0
-626,-163,8008,116,36,93,-7188,1567,-14844,0
-652,-226,8125,119,13,98,-7181,1551,-14893,0
-672,-179,8193,98,9,93,-7172,1577,-14876,0
-637,-132,8104,76,18,106,-7181,1589,-14917,0
-609,-85,8185,74,23,92,-7177,1569,-14947,0
-607,-67,8226,83,0,88,-7198,1596,-14884,0
-539,-61,8229,96,-4,97,-7225,1577,-14876,0
-483,-81,8229,87,15,93,-7217,1588,-14906,0
-431,-30,8104,89,12,86,-7201,1587,-14920,0
-466,-81,8194,101,17,84,-7202,1556,-14892,0
-490,-38,8136,104,20,81,-7209,1550,-14888,0
-471,-6,8142,123,20,84,-7199,1551,-14885,0
-428,-8,8037,169,33,95,-7193,1556,-14880,0
-439,-38,8021,168,47,95,-7202,1543,-14844,0
-475,-120,8107,176,51,91,-7234,1581,-14882,0
-461,-126,8043,182,55,97,-7200,1576,-14850,0
-460,-159,8035,170,55,96,-7201,1622,-14858,0
-495,-191,8015,163,72,97,-7216,1569,-14826,0
-523,-201,8034,156,48,94,-7244,1559,-14900,0
-583,-239,8086,130,50,95,-7186,1599,-14863,0
-595,-242,8126,123,39,91,-7191,1607,-14936,0
-666,-235,8140,113,24,96,-7221,1594,-14867,0
-598,-174,8057,122,32,91,-7229,1581,-14883,0
-532,-128,7898,113,37,95,-7186,1582,-14869,0
-545,-100,7936,125,48,91,-7213,1591,-14946,0
-542,-76,7833,114,38,87,-7205,1572,-14870,0
-537,-34,7944,106,15,89,-7208,1609,-14850,0
-533,-102,7924,145,33,84,-7206,1592,-14899,0
-520,-80,7812,150,42,89,-7227,1567,-14883,0
-518,-40,7797,155,50,86,-7188,1557,-14875,0
-541,-67,7843,156,33,85,-7227,1601,-14862,0
-557,-69,7837,163,27,89,-7199,1557,-14923,0
-527,-51,7732,148,44,83,-7207,1568,-14875,0
-577,-82,7864,145,47,89,-7198,1530,-14853,0
-588,-101,7957,151,50,86,-7212,1585,-14866,0
-602,-122,7957,141,31,100,-7232,1540,-14829,0
-659,-183,8180,107,22,100,-7206,1557,-14850,0
-652,-203,8202,95,14,94,-7181,1592,-14876,0
-617,-164,8193,87,5,96,-7193,1565,-14873,0
-586,-129,8174,100,21,89,-7210,1554,-14876,0
-567,-66,8185,83,16,93,-7225,1559,-14865,0
-543,-137,8222,67,20,97,-7209,1572,-14815,0
-609,-59,8209,64,8,92,-7212,1568,-14864,0
-557,-89,8240,99,8,86,-7246,1605,-14875,0
-443,-66,8183,100,29,90,-7230,1556,-14867,0
-455,-36,8143,113,17,85,-7240,1582,-14837,0
-466,-57,8155,131,16,76,-7270,1561,-14852,0
-424,-9,8001,163,30,84,-7242,1604,-14846,0
-380,-28,7979,164,59,92,-7225,1594,-14860,0
-416,-110,7981,181,59,88,-7206,1620,-14864,0
-509,-223,8137,178,49,90,-7189,1583,-14837,0
-464,-233,8094,184,54,86,-7203,1599,-14876,0
-438,-229,8073,154,49,93,-7213,1562,-14850,0
-543,-254,8113,169,59,87,-7236,1589,-14865,0
-550,-232,7984,158,47,87,-7232,1576,-14802,0
-518,-236,8185,144,34,94,-7195,1600,-14826,0
-485,-223,8036,161,44,99,-7195,1577,-14865,0
-549,-268,8162,114,42,105,-7227,1585,-14873,0
-557,-264,8192,115,49,98,-7215,1555,-14868,0
-538,-176,8108,92,43,94,-7171,1578,-14922,0
-528,-149,8042,95,33,91,-7205,1556,-14927,0
-499,-159,7924,108,42,89,-7233,1592,-14913,0
-532,-85,7950,135,25,86,-7199,1607,-14906,0
-508,-84,7888,146,26,92,-7218,1598,-14895,0
-475,-51,7828,144,40,87,-7227,1591,-14828,0
-531,-67,7761,162,52,91,-7203,1570,-14916,0
-527,-71,7834,158,54,80,-7211,1568,-14866,0
-539,-90,7931,152,25,80,-7241,1555,-14918,0
-541,-111,7915,169,50,88,-7164,1543,-14910,0
-576,-39,7812,157,46,88,-7230,1511,-14913,0
-523,-66,7852,163,61,96,-7242,1559,-14899,0
-562,-98,7902,161,45,94,-7225,1579,-14894,0
-628,-165,7979,159,35,92,-7199,1513,-14893,0
-618,-169,7999,110,31,104,-7236,1527,-14813,0
-697,-196,8183,97,8,102,-7224,1553,-14829,0
-644,-155,8196,87,24,97,-7200,1540,-14838,0
-616,-83,8116,82,24,99,-7209,1535,-14863,0
-627,-92,8296,76,3,81,-7200,1584,-14910,0
-544,-63,8218,111,4,78,-7220,1535,-14883,0
-518,-77,8278,115,10,87,-7229,1537,-14869,0
-444,-29,8165,140,35,89,-7205,1574,-14880,0
-442,-21,8058,144,8,93,-7193,1534,-14850,0
-476,-87,8095,128,19,86,-7231,1583,-14865,0
-408,-83,7993,136,31,84,-7219,1596,-14899,0
-450,-14,8067,140,59,91,-7214,1568,-14943,0
-434,-44,8049,172,49,90,-7225,1576,-14905,0
-445,-130,8070,169,59,92,-7224,1546,-14911,0
-454,-173,8065,180,66,100,-7224,1569,-14875,0
-467,-196,8010,168,54,88,-7207,1588,-14899,0
-517,-225,8077,155,58,89,-7215,1585,-14853,0
-526,-220,8022,149,52,101,-7222,1581,-14904,0
-587,-221,8074,137,48,99,-7205,1568,-14890,0
-626,-219,8108,115,38,101,-7218,1559,-14857,0
-651,-193,8106,114,22,97,-7167,1583,-14838,0
