tstm,aX,aY,aZ,meanX,meanY,meanZ,stdX,stdY,stdZ,meanDiffX,meanDiffY,meanDiffZ,stdDiffX,stdDiffY,stdDiffZ
7113,-536,-459,7874,-484.457,763.543,7926.600,441.768,831.290,559.950,-31.429,-24.429,19.717,-4.045,33.517,-4.246
7213,-601,-967,8768,-492.014,748.457,7939.529,439.165,852.701,568.712,-75.571,-150.857,129.287,-26.034,214.103,87.615
7313,-960,-628,7469,-502.914,735.757,7931.186,441.171,866.377,571.264,-109.000,-127.000,-83.433,20.067,136.761,25.521
7413,-462,-541,7737,-509.443,726.900,7932.714,437.117,876.160,570.599,-65.286,-88.571,15.288,-40.538,97.830,-6.652
7513,-412,-273,8555,-511.843,705.186,7940.043,436.114,881.818,575.231,-24.000,-217.143,73.286,-10.039,56.582,46.321
7613,-782,-240,6909,-523.486,660.014,7928.357,432.275,847.420,587.615,-116.429,-451.714,-116.860,-38.390,-343.976,123.847
7713,-163,183,7680,-521.286,624.029,7934.929,433.709,812.717,582.204,22.000,-359.857,65.718,14.348,-347.029,-54.112
7813,-1731,774,8567,-537.743,617.443,7938.186,456.827,809.602,585.086,-164.572,-65.857,32.568,231.180,-31.158,28.821
7913,-14,-41,6301,-534.043,609.971,7916.300,459.994,813.222,616.425,37.000,-74.714,-218.857,31.672,36.206,313.389
8013,201,-421,6168,-516.500,591.086,7891.271,464.256,821.552,650.399,175.428,-188.857,-250.283,42.618,83.300,339.736
8113,-1725,157,7817,-529.014,573.243,7883.943,484.419,817.211,648.301,-125.143,-178.428,-73.286,201.629,-43.408,-20.981
8213,-89,37,9107,-520.586,548.029,7901.757,486.863,806.063,664.333,84.286,-252.143,178.145,24.437,-111.484,160.319
8313,-544,-482,8330,-512.800,520.729,7902.571,482.045,808.122,664.822,77.857,-273.000,8.140,-48.183,20.591,4.893
8413,850,-932,9392,-491.100,490.129,7928.414,508.015,821.880,686.697,217.000,-306.000,258.428,259.705,137.580,218.750
8513,-899,76,6910,-485.100,476.329,7924.929,500.628,820.607,691.223,60.000,-138.000,-34.854,-73.870,-12.734,45.266
8613,-900,99,8240,-485.757,462.986,7940.971,501.142,819.039,685.292,-6.571,-133.429,160.425,5.138,-15.680,-59.311
8713,-458,244,7521,-496.457,456.171,7926.029,492.362,818.848,682.879,-107.000,-68.143,-149.424,-87.799,-1.906,-24.137
8813,10,-557,8319,-480.186,441.243,7935.643,490.004,827.611,683.606,162.715,-149.286,96.143,-23.578,87.625,7.271
8913,-2278,32,6133,-508.986,436.457,7913.471,533.636,828.994,715.786,-288.000,-47.857,-221.719,436.324,13.829,321.801
9013,-346,17,7853,-508.629,429.143,7916.800,533.737,830.402,714.955,3.571,-73.143,33.286,1.006,14.087,-8.312
9113,-49,-718,11084,-503.614,414.657,7955.800,536.376,841.370,806.357,50.143,-144.857,390.000,26.392,109.680,914.019
9213,-1198,-294,9118,-509.500,405.943,7974.114,541.677,845.496,817.904,-58.857,-87.143,183.145,53.005,41.255,115.470
9313,-805,-577,8468,-507.500,391.014,7975.186,540.322,853.457,818.500,20.000,-149.286,10.713,-13.549,79.607,5.970
9413,-167,-782,7973,-499.629,376.414,7976.957,541.211,864.584,818.360,78.714,-146.000,17.715,8.890,111.276,-1.409
9513,-162,-698,7575,-496.200,355.414,7991.614,542.577,872.537,801.671,34.286,-210.000,146.572,13.661,79.524,-166.887
9613,-124,-775,8699,-494.314,341.486,8016.043,543.637,882.630,796.786,18.857,-139.286,244.287,10.599,100.934,-48.852
9713,-594,-688,7783,-481.700,325.800,8012.329,530.781,890.990,797.257,126.143,-156.857,-37.144,-128.558,83.601,4.716
9813,-697,-445,7647,-477.514,313.286,8013.057,527.904,895.565,796.900,41.857,-125.143,7.285,-28.774,45.746,-3.576
9913,-293,-733,7753,-482.657,303.071,8003.586,524.315,903.329,795.994,-51.429,-102.143,-94.712,-35.884,77.639,-9.059
10013,188,-768,7090,-472.186,284.614,7985.128,530.252,911.786,801.962,104.714,-184.572,-184.575,59.364,84.573,59.683
10113,-1052,-519,7946,-478.900,274.014,7989.529,534.558,916.740,800.890,-67.143,-106.000,44.004,43.062,49.541,-10.724
10213,-231,-1262,8655,-476.043,213.129,8003.457,535.340,874.216,803.858,28.571,-608.857,139.282,7.823,-425.245,29.685
10313,-891,-844,8231,-479.714,183.986,8010.657,537.289,874.967,803.607,-36.714,-291.429,72.002,19.484,7.518,-2.513
10413,-133,-750,7576,-475.786,169.743,8005.929,538.802,881.913,805.175,39.286,-142.429,-47.285,15.132,69.454,15.682
10513,-479,-1012,8890,-473.186,135.957,8001.014,538.341,881.236,798.689,26.000,-337.857,-49.146,-4.612,-6.765,-64.866
10613,-1054,-625,8746,-484.900,102.371,8005.557,541.918,864.641,802.002,-117.143,-335.857,45.430,35.776,-165.953,33.132
10713,-672,156,7404,-487.329,90.400,8007.100,542.370,857.989,800.738,-24.286,-119.714,15.430,4.520,-66.523,-12.636
10813,-516,150,7369,-492.057,78.786,7996.943,541.155,851.577,804.251,-47.285,-116.143,-101.572,-12.148,-64.120,35.125
10913,-1633,1033,7555,-508.129,71.986,7991.057,557.838,841.975,805.954,-160.714,-68.000,-58.857,166.829,-96.013,17.034
11013,32,397,6979,-503.429,61.029,7980.471,560.975,832.632,814.268,47.000,-109.571,-105.859,31.363,-93.434,83.140
11113,-629,-217,8277,-510.786,45.000,7984.586,559.193,827.011,815.028,-73.571,-160.286,41.147,-17.814,-56.208,7.599
11213,-858,-174,7497,-516.714,20.914,7991.700,560.641,808.275,808.542,-59.286,-240.857,71.143,14.479,-187.360,-64.864
11313,-4,722,7893,-510.700,15.343,7987.757,563.842,802.055,808.340,60.143,-55.714,-39.429,32.006,-62.198,-2.014
11413,-136,550,8042,-508.829,2.471,7986.300,564.864,785.981,808.149,18.714,-128.714,-14.575,10.223,-160.742,-1.910
11513,-552,-99,7804,-499.657,-16.414,7984.214,558.844,772.189,808.429,91.714,-188.857,-20.854,-60.195,-137.924,2.793
11613,-112,14,8134,-500.114,-34.857,7981.500,558.514,755.648,807.602,-4.572,-184.429,-27.144,-3.303,-165.407,-8.267
11713,-300,295,7827,-496.800,-49.400,7995.200,559.003,739.184,796.656,33.143,-145.429,137.002,4.891,-164.638,-109.455
11813,-560,374,7140,-501.514,-58.786,7979.514,558.124,729.514,802.509,-47.143,-93.857,-156.860,-8.792,-96.699,58.528
11913,-897,-429,8002,-509.129,-85.057,7997.357,559.829,708.971,788.809,-76.143,-262.714,178.428,17.052,-205.433,-137.003
12013,-50,-164,8212,-507.286,-105.957,7996.986,561.124,689.149,788.702,18.429,-209.000,-3.711,12.945,-198.221,-1.072
12113,440,-146,9139,-492.986,-126.829,8015.486,572.218,667.584,800.003,143.000,-208.714,185.000,110.943,-215.645,113.015
12213,-1191,285,7274,-514.986,-147.200,7996.414,569.019,632.001,801.538,-220.000,-203.714,-190.718,-31.995,-355.834,15.350
12313,-115,-345,8235,-499.371,-169.557,7999.614,564.768,610.558,802.037,156.143,-223.571,32.002,-42.507,-214.431,4.987
12413,-1042,422,9152,-506.014,-184.257,8006.786,568.365,583.135,810.025,-66.429,-147.000,71.714,35.973,-274.226,79.879
12513,-1263,-162,9434,-524.971,-206.814,8034.714,571.160,550.378,824.912,-189.572,-225.571,279.287,27.952,-327.571,148.873
12613,34,205,8320,-520.243,-223.557,8036.128,574.389,518.867,825.315,47.286,-167.429,14.141,32.287,-315.109,4.030
12713,-1594,1049,8750,-527.686,-215.686,8054.128,584.785,533.721,826.946,-74.429,78.714,180.000,103.958,148.535,16.313
12813,-715,30,6296,-542.557,-223.843,8030.071,576.058,525.476,852.843,-148.714,-81.571,-240.571,-87.273,-82.444,258.961
12913,-114,-279,8259,-532.543,-229.043,8028.500,577.326,524.194,852.318,100.143,-52.000,-15.713,12.686,-12.824,-5.244
13013,-173,312,8216,-514.943,-229.157,8021.586,569.182,524.075,848.798,176.000,-1.143,-69.141,-81.439,-1.189,-35.199
13113,-277,411,8152,-527.886,-196.571,8022.500,553.096,490.902,848.904,-129.429,325.857,9.141,-160.862,-331.731,1.057
13213,-924,553,7946,-538.143,-188.486,8011.514,553.689,498.462,844.837,-102.571,80.857,-109.858,5.930,75.602,-40.669
13313,559,-400,8500,-530.029,-196.614,8013.157,565.422,497.204,845.673,81.143,-81.286,16.431,117.328,-12.581,8.361
13413,-1301,-12,7225,-541.186,-198.157,8005.286,572.771,496.460,850.395,-111.572,-15.429,-78.716,73.496,-7.434,47.219
13513,-285,-361,7917,-538.286,-194.057,8004.714,573.547,493.907,850.441,29.000,41.000,-5.713,7.754,-25.534,0.457
13613,-195,-628,8437,-524.600,-199.671,8017.757,570.135,496.567,849.969,136.857,-56.143,130.430,-34.118,26.599,-4.715
13713,-1393,15,8821,-547.257,-195.614,8022.500,572.676,497.144,853.505,-226.572,40.571,47.427,25.405,5.768,35.355
13813,454,251,7730,-524.800,-185.929,8035.500,580.621,499.142,841.942,224.572,96.857,130.000,79.458,19.983,-115.628
13913,-1516,163,8149,-543.843,-173.043,8040.443,590.868,496.333,841.578,-190.428,128.857,49.429,102.466,-28.093,-3.640
14013,1690,-336,8480,-505.543,-168.243,8020.729,645.049,493.098,814.450,383.000,48.000,-197.144,541.810,-32.344,-271.285
14113,1196,-461,7897,-480.800,-168.271,8021.057,675.887,493.115,814.395,247.429,-0.286,3.286,308.381,0.169,-0.546
14213,629,31,7784,-463.229,-154.014,8007.000,688.406,484.162,809.860,175.714,142.571,-140.571,125.193,-89.532,-45.348
14313,514,628,8697,-442.171,-136.071,8024.543,695.397,489.508,811.315,210.572,179.429,175.430,69.906,53.458,14.551
14413,-2874,-193,8442,-476.629,-131.100,8034.614,752.906,487.131,812.059,-344.572,49.714,100.713,575.086,-23.764,7.436
14513,-1541,287,7736,-492.757,-123.100,8022.914,763.368,489.329,810.375,-161.286,80.000,-117.002,104.626,21.974,-16.837
14613,-48,140,7766,-482.271,-117.671,8035.157,764.364,490.109,799.859,104.857,54.286,122.432,9.954,7.802,-105.158
14713,21,93,8224,-479.643,-118.957,8042.929,765.772,489.436,799.013,26.286,-12.857,77.715,14.086,-6.729,-8.460
14813,-476,562,7593,-461.714,-121.986,8029.014,750.810,484.533,798.246,179.286,-30.286,-139.146,-149.621,-49.035,-7.673
14913,-582,658,7749,-469.829,-112.000,8049.700,748.995,493.224,771.512,-81.143,99.857,206.860,-18.154,86.910,-267.337
15013,-773,528,7839,-483.743,-98.443,8073.571,745.442,497.567,738.047,-139.143,135.571,238.711,-35.527,43.436,-334.655
15113,-50,130,7620,-459.814,-98.829,8070.757,731.976,497.379,739.394,239.286,-3.857,-28.140,-134.662,-1.878,13.473
15213,87,90,8060,-457.300,-98.071,8055.800,733.546,497.626,728.795,25.143,7.571,-149.575,15.701,2.465,-105.994
15313,-302,451,8023,-453.843,-84.743,8051.414,733.699,499.655,728.055,34.571,133.286,-43.857,1.535,20.291,-7.399
15413,-207,215,7786,-468.943,-68.357,8028.471,717.406,490.322,710.542,-151.000,163.857,-229.429,-162.935,-93.335,-175.128
15513,-228,395,7879,-459.357,-63.800,8042.314,716.077,493.116,697.944,95.857,45.571,138.433,-13.286,27.949,-125.977
15613,269,384,8591,-442.657,-59.729,8047.329,719.230,495.614,700.602,167.000,40.714,50.142,31.533,24.976,26.581
15713,-31,306,8018,-436.557,-58.843,8054.429,720.883,496.211,697.745,61.000,8.857,71.001,16.528,5.970,-28.574
15813,-66,391,7662,-437.643,-45.300,8045.043,720.267,495.366,698.542,-10.857,135.429,-93.857,-6.162,-8.448,7.964
15913,-448,388,8252,-411.500,-40.214,8075.314,685.360,497.954,659.870,261.429,50.857,302.715,-349.073,25.881,-386.715
16013,-95,394,8599,-407.914,-34.829,8085.971,686.349,500.576,662.214,35.857,53.857,106.567,9.893,26.216,23.435
16113,-190,345,8041,-409.929,-19.643,8042.500,685.499,495.721,555.214,-20.143,151.857,-434.712,-8.500,-48.550,-1069.991
16213,-376,479,8158,-398.186,-8.600,8028.786,678.908,498.090,540.131,117.429,110.429,-137.144,-65.915,23.695,-150.835
16313,-224,414,7926,-389.886,5.557,8021.043,677.433,495.812,537.659,83.000,141.571,-77.427,-14.744,-22.784,-24.724
16413,-89,385,7642,-388.771,22.229,8016.314,677.863,488.618,539.513,11.143,166.714,-47.285,4.297,-71.938,18.540
16513,5,-1148,8811,-386.386,15.800,8033.971,678.950,500.859,544.978,23.857,-64.286,176.567,10.869,122.404,54.659
16613,-171,-376,8559,-387.057,21.500,8031.971,678.713,494.050,542.787,-6.714,57.000,-20.000,-2.366,-68.082,-21.917
16713,-403,166,7884,-384.329,33.700,8033.414,678.259,486.872,542.257,27.285,122.000,14.429,-4.536,-71.786,-5.299
16813,-289,89,8176,-378.500,41.329,8040.971,677.300,483.483,540.502,58.286,76.286,75.571,-9.597,-33.885,-17.545
16913,-234,-234,8600,-377.657,48.457,8053.071,677.443,475.629,543.393,8.429,71.286,121.001,1.428,-78.545,28.909
17013,-410,-437,7977,-386.200,53.186,8065.743,674.017,469.089,530.988,-85.429,47.286,126.714,-34.252,-65.401,-124.053
17113,-294,-473,7821,-375.371,53.843,8063.957,669.306,468.318,531.597,108.286,6.571,-17.856,-47.111,-7.704,6.096
17213,-481,395,8194,-378.943,77.514,8057.372,669.193,442.368,527.071,-35.714,236.714,-65.854,-1.129,-259.502,-45.266
17313,70,-328,7903,-365.214,84.886,8052.686,668.405,431.107,526.964,137.286,73.714,-46.860,-7.886,-112.613,-1.064
17413,-360,-652,8348,-368.457,86.286,8063.714,667.820,428.545,524.947,-32.429,14.000,110.288,-5.842,-25.620,-20.172
17513,-167,-139,7365,-364.000,98.757,8041.929,668.109,408.642,521.839,44.572,124.714,-217.856,2.884,-199.029,-31.085
17613,-16,-264,8658,-349.171,103.914,8040.671,664.137,401.694,520.245,148.286,51.571,-12.573,-39.715,-69.476,-15.941
17713,-153,-317,8389,-341.757,97.157,8054.743,663.388,404.728,516.139,74.143,-67.571,140.713,-7.489,30.339,-41.060
17813,-209,-150,7860,-337.371,92.871,8061.757,663.237,405.733,510.072,43.857,-42.857,70.146,-1.516,10.049,-60.662
17913,-162,200,8350,-316.357,80.971,8073.114,644.903,389.891,507.507,210.143,-119.000,113.569,-183.338,-158.417,-25.656
18013,-410,154,7800,-322.671,77.500,8084.843,643.624,388.140,491.315,-63.143,-34.714,117.285,-12.791,-17.515,-161.923
18113,-260,99,8394,-317.400,82.014,8086.514,642.604,386.523,492.164,52.714,45.143,16.714,-10.203,-16.170,8.491
18213,21,-108,7164,-304.843,82.957,8081.757,640.502,385.977,499.395,125.571,9.429,-47.568,-21.017,-5.456,72.313
18313,-320,62,8374,-309.357,73.529,8088.628,639.479,378.235,500.059,-45.143,-94.286,68.711,-10.234,-77.420,6.642
18413,-179,36,8202,-309.971,66.186,8090.914,639.333,373.878,500.207,-6.143,-73.429,22.856,-1.461,-43.571,1.473
18513,-671,274,7638,-311.671,71.514,8088.543,640.131,374.144,501.952,-17.000,53.286,-23.711,7.989,2.657,17.451
18613,-366,575,8325,-315.300,79.529,8091.271,639.709,378.805,502.710,-36.286,80.143,27.285,-4.224,46.616,7.584
18713,-298,384,7331,-315.271,80.800,8084.186,639.710,379.675,509.830,0.286,12.714,-70.859,0.007,8.694,71.201
18813,-173,412,8743,-309.743,81.343,8107.086,639.243,380.121,502.859,55.286,5.429,229.004,-4.667,4.458,-69.710
18913,-40,459,8392,-297.500,94.029,8112.657,636.077,377.687,503.824,122.429,126.857,55.713,-31.658,-24.336,9.645
19013,-248,296,7407,-300.329,100.600,8101.157,635.410,377.142,510.567,-28.286,65.714,-115.000,-6.669,-5.452,67.433
19113,-284,427,8003,-310.671,108.786,8084.929,629.137,377.918,495.142,-103.428,81.857,-162.285,-62.733,7.763,-154.251
19213,-60,1802,8896,-294.514,130.457,8108.100,620.789,427.628,494.603,161.571,216.714,231.714,-83.482,497.098,-5.391
19313,-278,1923,8207,-296.843,162.857,8107.700,620.417,473.803,494.511,-23.286,324.000,-3.999,-3.721,461.753,-0.915
19413,-88,1287,8331,-283.214,175.214,8095.971,614.347,491.356,479.100,136.286,123.571,-117.290,-60.700,175.523,-154.113
19513,-91,555,7971,-266.471,185.457,8075.071,603.287,491.692,451.383,167.429,102.429,-208.999,-110.595,3.368,-277.165
19613,-5,409,8096,-267.029,188.371,8071.872,603.027,492.404,450.429,-5.571,29.143,-31.997,-2.598,7.112,-9.547
19713,-320,467,8740,-248.829,180.057,8071.729,581.546,482.618,450.215,182.000,-83.143,-1.431,-214.813,-97.856,-2.136
19813,-54,707,8130,-239.386,189.729,8097.929,579.262,486.283,396.245,94.429,96.714,262.002,-22.842,36.655,-539.705
19913,-383,1030,7866,-243.229,208.429,8092.314,579.310,493.021,396.707,-38.429,187.000,-56.143,0.477,67.376,4.619
20013,-86,1004,7879,-241.986,218.314,8087.500,579.552,501.857,397.221,12.429,98.857,-48.145,2.426,88.362,5.141
20113,-791,651,8297,-249.329,221.743,8089.571,583.194,503.977,397.929,-73.428,34.286,20.713,36.418,21.200,7.086
20213,-496,452,8018,-243.214,220.300,8090.600,578.312,503.171,397.650,61.143,-14.429,10.288,-48.822,-8.065,-2.795
20313,-319,463,7633,-255.757,232.629,8078.214,570.242,498.371,398.207,-125.429,123.286,-123.857,-80.701,-47.999,5.574
20413,-623,691,8205,-246.071,242.671,8092.214,558.033,500.419,384.971,96.857,100.429,140.000,-122.086,20.482,-132.357
20513,-950,875,8005,-255.571,260.329,8093.471,564.241,500.613,384.541,-95.000,176.572,12.568,62.079,1.940,-4.308
20613,-671,623,7395,-262.371,278.200,8078.586,566.335,490.815,391.067,-68.000,178.714,-148.853,20.934,-97.976,65.265
20713,-901,487,7795,-255.343,284.943,8063.929,555.203,490.395,382.091,70.286,67.429,-146.572,-111.320,-4.201,-89.761
20813,-730,478,7806,-272.257,288.186,8065.014,551.357,490.910,381.247,-169.143,32.428,10.854,-38.458,5.151,-8.434
20913,-1003,439,8246,-264.929,292.129,8066.400,538.025,490.997,381.726,73.286,39.429,13.857,-133.323,0.871,4.787
21013,-1049,608,8757,-304.057,305.614,8070.357,492.063,486.504,387.387,-391.286,134.857,39.570,-459.621,-44.940,56.609
21113,-1240,649,7756,-338.857,321.471,8068.343,470.408,479.294,388.648,-348.000,158.571,-20.142,-216.549,-72.092,12.607
21213,-1312,666,7566,-366.586,330.543,8065.229,469.746,479.720,391.775,-277.286,90.714,-31.143,-6.619,4.255,31.268
21313,-920,547,8143,-387.071,329.386,8057.314,462.103,479.098,384.460,-204.857,-11.571,-79.141,-76.428,-6.216,-73.149
21413,-1053,138,7583,-361.057,334.114,8045.043,361.722,475.539,385.692,260.143,47.286,-122.715,-1003.806,-35.589,12.326
21513,-1385,335,7616,-358.829,334.800,8043.329,354.861,475.505,387.325,22.285,6.857,-17.144,-68.610,-0.338,16.331
21613,-1267,380,7663,-376.243,338.229,8041.857,368.816,474.953,388.570,-174.143,34.286,-14.717,139.552,-5.520,12.444
21713,-1119,268,8272,-392.529,340.729,8042.543,376.015,474.116,388.933,-162.857,25.000,6.860,71.986,-8.376,3.630
21813,-1414,224,7934,-405.929,335.900,8047.414,394.986,473.559,385.391,-134.000,-48.286,48.711,189.710,-5.573,-35.417
21913,-1629,228,7890,-420.886,329.757,8049.429,420.378,472.127,384.193,-149.572,-61.429,20.146,253.917,-14.312,-11.984
22013,-1627,249,7707,-433.086,325.771,8047.543,442.243,471.614,385.542,-122.000,-39.857,-18.857,218.654,-5.129,13.498
22113,-1440,298,8546,-452.943,328.171,8060.771,455.601,471.039,386.531,-198.571,24.000,132.285,133.577,-5.753,9.884
22213,-1743,304,7833,-479.086,331.229,8057.529,475.919,470.177,387.475,-261.429,30.572,-32.427,203.181,-8.620,9.439
22313,-1717,170,7733,-499.300,327.214,8053.386,497.528,470.337,389.367,-202.143,-40.143,-41.431,216.091,1.598,18.927
22413,-1339,-89,8311,-515.471,322.871,8060.886,506.088,472.750,389.201,-161.714,-43.429,75.000,85.598,24.134,-1.664
22513,-2006,18,8006,-540.871,317.486,8062.700,534.825,474.044,388.645,-254.000,-53.857,18.145,287.369,12.933,-5.565
22613,-1856,45,7649,-571.229,312.643,8049.243,548.137,475.070,386.421,-303.572,-48.429,-134.575,133.123,10.262,-22.235
22713,-1767,89,8061,-596.029,309.543,8049.857,562.224,475.810,386.405,-248.000,-31.000,6.143,140.876,7.406,-0.159
22813,-1746,-5,8999,-620.029,303.886,8068.957,574.803,477.161,399.581,-240.000,-56.571,191.001,125.789,13.501,131.755
22913,-2157,-2,8355,-644.443,298.314,8070.429,602.600,478.421,400.441,-244.143,-55.714,14.717,277.968,12.605,8.600
23013,-2235,120,7414,-675.014,294.400,8053.500,627.711,478.743,402.778,-305.714,-39.143,-169.287,251.105,3.219,23.377
23113,-2605,769,7671,-709.514,300.457,8048.214,665.344,482.016,405.328,-345.000,60.572,-52.856,376.328,32.729,25.492
23213,-1859,1008,7800,-730.700,308.014,8043.100,677.879,488.854,406.168,-211.857,75.571,-51.143,125.355,68.383,8.402
23313,-1767,584,8657,-752.743,310.443,8053.543,686.082,489.796,412.373,-220.428,24.286,104.429,82.027,9.419,62.049
23413,-2059,30,8342,-780.886,305.371,8063.543,698.569,490.835,410.756,-281.429,-50.714,100.000,124.869,10.385,-16.169
23513,-1791,-134,7928,-806.543,319.857,8050.929,702.206,461.835,401.052,-256.571,144.857,-126.143,36.371,-290.002,-97.043
23613,-2118,552,8043,-834.357,333.114,8043.557,714.926,454.937,396.360,-278.143,132.571,-73.716,127.203,-68.973,-46.915
23713,-1786,537,7615,-854.114,338.414,8039.714,721.809,455.120,399.183,-197.571,53.000,-38.428,68.831,1.832,28.224
23813,-1931,603,8441,-877.571,345.757,8043.500,729.701,455.184,401.705,-234.572,73.429,37.856,78.914,0.633,25.229
23913,-1911,160,7198,-901.529,351.386,8023.471,735.683,450.391,408.356,-239.572,56.286,-200.288,59.820,-47.932,66.505
24013,-2410,-109,8180,-930.100,356.071,8026.372,754.631,443.822,408.736,-285.714,46.857,29.004,189.485,-65.681,3.803
24113,-1740,277,6449,-950.757,366.786,8006.771,756.724,432.589,449.024,-206.572,107.143,-196.001,20.932,-112.332,402.881
24213,-900,-442,9931,-956.743,354.829,8031.586,754.639,443.085,503.390,-59.857,-119.571,248.145,-20.853,104.953,543.656
24313,-3351,829,9746,-1005.614,371.357,8057.914,796.194,438.864,542.642,-488.714,165.286,263.281,415.546,-42.202,392.525
24413,-1591,426,9149,-1023.200,386.757,8069.357,795.334,421.244,556.897,-175.858,154.000,114.429,-8.599,-176.203,142.548
24513,-2021,709,7001,-1049.686,398.871,8064.157,797.248,418.132,565.089,-264.857,121.143,-51.997,19.144,-31.121,81.918
24613,-1829,1833,7466,-1075.586,428.829,8047.128,792.682,443.894,564.897,-259.000,299.572,-170.288,-45.656,257.617,-1.917
24713,-641,1181,7006,-1082.557,450.229,8027.372,786.661,443.531,576.658,-69.714,214.000,-197.568,-60.215,-3.630,117.603
24813,-1723,938,6990,-1104.186,465.771,8014.943,783.151,441.282,589.366,-216.285,155.428,-124.287,-35.099,-22.485,127.088
24913,-2422,725,8327,-1136.471,473.271,8014.614,790.197,441.163,589.186,-322.858,75.000,-3.286,70.456,-1.193,-1.805
25013,883,304,8700,-1118.000,475.414,8027.471,821.456,439.969,594.161,184.714,21.429,128.569,312.597,-11.933,49.753
25113,-3491,2591,4790,-1164.157,511.014,7975.986,861.736,504.203,705.825,-461.571,356.000,-514.854,402.794,642.331,1116.641
25213,-851,125,8200,-1176.614,514.343,7990.786,850.746,500.863,699.477,-124.572,33.286,147.998,-109.899,-33.395,-63.481
25313,-651,2259,7211,-1181.343,545.729,7974.171,846.883,538.924,703.975,-47.286,313.857,-166.143,-38.631,380.609,44.979
25413,-1166,2320,6171,-1195.443,578.357,7945.157,838.250,575.008,735.151,-141.000,326.285,-290.142,-86.333,360.844,311.756
25513,-1070,1355,8032,-1201.143,593.800,7950.786,836.018,581.111,734.285,-57.000,154.429,56.284,-22.319,61.023,-8.654
25613,-1380,1189,9797,-1215.629,602.571,7971.814,830.186,585.379,765.131,-144.857,87.714,210.288,-58.317,42.682,308.455
25713,-672,2262,8446,-1220.971,629.400,7987.743,825.453,616.932,763.228,-53.429,268.286,159.282,-47.328,315.530,-19.026
25813,-1009,1576,9319,-1232.914,646.029,7995.971,816.200,626.461,774.350,-119.429,166.285,82.285,-92.528,95.295,111.223
25913,-924,1931,7854,-1245.543,667.057,7988.286,804.399,644.282,773.050,-126.285,210.286,-76.855,-118.014,178.210,-13.000
26013,-1822,2637,5599,-1268.029,700.500,7962.457,798.175,683.705,820.771,-224.857,334.429,-258.286,-62.238,394.226,477.208
26113,532,801,7308,-1256.371,705.843,7952.529,818.170,683.008,824.416,116.571,53.428,-99.282,199.947,-6.971,36.450
26213,-89,-387,8234,-1256.786,674.571,7943.071,817.571,682.216,817.305,-4.143,-312.714,-94.575,-5.988,-7.922,-71.107
26313,-1608,197,8192,-1275.786,649.914,7942.857,810.023,667.685,817.238,-190.000,-246.571,-2.144,-75.480,-145.308,-0.673
26413,-864,99,9395,-1286.871,632.943,7958.057,798.926,666.373,834.038,-110.857,-169.714,152.002,-110.975,-13.121,167.999
26513,595,1500,7835,-1277.071,646.443,7956.114,817.526,674.184,834.164,98.000,135.000,-19.429,186.000,78.108,1.260
26613,-1348,1040,8658,-1296.257,655.457,7964.143,803.078,675.166,838.167,-191.858,90.143,80.288,-144.471,9.827,40.026
26713,-396,313,8221,-1297.343,653.257,7956.729,801.808,676.027,833.554,-10.857,-22.000,-74.146,-12.701,8.608,-46.131
26813,42,-387,8254,-1295.971,637.629,7958.500,804.013,687.158,834.052,13.715,-156.285,17.715,22.046,111.309,4.980
26913,-999,1200,9056,-1304.771,640.057,7975.500,797.315,688.839,844.060,-88.000,24.285,170.000,-66.976,16.808,100.089
27013,-1596,4313,7286,-1326.343,687.329,7967.029,784.371,814.306,847.953,-215.714,472.714,-84.712,-129.443,1254.668,38.928
27113,217,2675,7653,-1311.943,716.243,7957.829,803.096,847.750,847.817,144.000,289.143,-92.002,187.252,334.438,-1.364
27213,1851,738,8448,-1278.414,720.329,7963.971,881.616,847.155,849.786,335.286,40.857,61.426,785.193,-5.943,19.692
27313,681,1183,9338,-1264.129,730.614,7988.329,904.842,848.339,864.262,142.858,102.857,243.574,232.267,11.833,144.760
27413,1689,1419,8410,-1231.100,741.014,7991.257,967.658,852.243,865.338,330.286,104.000,29.287,628.156,39.040,10.758
27513,180,1811,5068,-1214.957,754.386,7949.300,981.539,861.532,932.268,161.428,133.715,-419.575,138.807,92.894,669.305
27613,899,1097,8453,-1192.529,761.157,7964.414,1011.201,862.335,931.736,224.286,67.714,151.143,296.628,8.031,-5.328
27713,-233,2078,6588,-1182.986,783.886,7947.171,1017.043,875.673,945.774,95.428,227.286,-172.427,58.414,133.384,140.383
27813,125,1345,5929,-1170.771,796.271,7920.357,1027.490,877.389,975.536,122.142,123.857,-268.145,104.471,17.158,297.622
27913,671,2211,8729,-1146.857,821.586,7927.257,1050.343,892.155,979.515,239.143,253.143,69.004,228.533,147.654,39.788
28013,-364,794,9639,-1137.071,824.243,7939.857,1054.392,891.791,995.647,97.858,26.572,125.996,40.492,-3.633,161.323
28113,252,693,7416,-1115.757,824.871,7935.000,1067.100,891.683,997.360,213.142,6.285,-48.569,127.075,-1.082,17.128
28213,-15,1611,7075,-1097.229,838.371,7927.986,1074.764,896.317,1001.648,185.287,135.000,-70.142,76.643,46.341,42.880
28313,-1135,2162,7867,-1100.300,861.443,7924.043,1074.561,909.213,1001.337,-30.715,230.715,-39.429,-2.035,128.956,-3.110
28413,261,1804,7345,-1081.529,885.243,7920.643,1086.632,911.766,1002.892,187.715,238.000,-33.999,120.715,25.527,15.552
28513,1490,2727,6607,-1040.457,919.414,7906.229,1127.934,935.030,1014.353,410.714,341.714,-144.146,413.016,232.647,114.604
28613,48,1902,8137,-1021.671,941.157,7913.000,1134.933,939.917,1014.288,187.857,217.429,67.715,69.995,48.871,-0.643
28713,1633,1666,8139,-982.357,961.129,7911.100,1177.739,940.254,1013.739,393.143,199.714,-18.999,428.052,3.369,-5.497
28813,-1140,1781,8214,-978.443,983.371,7915.100,1176.753,940.970,1014.373,39.142,222.428,40.000,-9.860,7.153,6.347
28913,3750,1420,7472,-901.600,1000.400,7909.128,1300.845,937.926,1015.733,768.429,170.286,-59.717,1240.925,-30.431,13.594
29013,646,883,8875,-869.129,1009.457,7925.814,1310.664,933.678,1021.851,324.714,90.571,166.860,98.193,-42.482,61.178
29113,1398,616,11195,-828.586,1014.000,7963.657,1336.027,930.975,1090.840,405.429,45.428,378.428,253.628,-27.031,689.891
29213,688,895,8359,-793.857,1022.443,7971.171,1343.382,927.170,1091.725,347.286,84.429,75.142,73.547,-38.049,8.854
29313,135,1939,8049,-767.400,1047.714,7975.686,1343.178,927.699,1091.384,264.571,252.714,45.142,-2.042,5.293,-3.408
29413,1676,1689,6284,-724.329,1073.114,7946.729,1372.185,920.542,1108.854,430.715,254.000,-289.570,290.076,-71.577,174.701
29513,287,1696,5992,-691.571,1097.086,7917.957,1368.563,914.583,1132.813,327.571,239.714,-287.715,-36.224,-59.591,239.585
29613,240,3259,7508,-661.629,1143.000,7915.943,1365.685,940.909,1133.415,299.428,459.143,-20.142,-28.782,263.265,6.017
29713,1932,1711,9123,-608.786,1166.171,7931.114,1393.179,934.619,1142.327,528.429,231.714,151.714,274.939,-62.905,89.128
29813,-1097,3546,10680,-599.514,1216.900,7955.128,1387.729,965.532,1181.521,92.714,507.286,240.142,-54.501,309.133,391.936
29913,210,669,6142,-565.700,1226.486,7923.514,1378.171,956.674,1199.863,338.143,95.857,-316.143,-95.577,-88.584,183.423
30013,1985,1715,5343,-505.414,1249.271,7893.929,1396.014,949.012,1237.020,602.857,227.858,-295.854,178.435,-76.614,371.562
30113,2959,3450,9986,-425.929,1287.571,7927.000,1432.139,982.370,1261.324,794.857,382.999,330.713,361.248,333.579,243.044
30213,-652,781,9056,-408.686,1284.329,7944.943,1422.011,983.661,1268.304,172.429,-32.428,179.429,-101.276,12.913,69.800
30313,1998,2121,7332,-354.900,1306.286,7926.014,1440.698,984.937,1267.423,537.857,219.572,-189.287,186.868,12.759,-8.809
30413,467,2482,6985,-318.814,1341.314,7906.628,1429.152,982.523,1271.284,360.857,350.286,-193.857,-115.466,-24.144,38.611
30513,296,1794,7690,-289.000,1368.857,7903.229,1419.867,967.691,1271.541,298.143,275.428,-33.999,-92.843,-148.315,2.565
30613,-201,280,8795,-261.614,1364.971,7913.971,1402.710,971.502,1275.846,273.857,-38.857,107.427,-171.575,38.109,43.049
30713,599,1454,9438,-227.543,1378.071,7940.014,1394.209,966.419,1288.025,340.714,131.000,260.430,-85.011,-50.836,121.792
30813,-9,1526,5892,-200.086,1391.257,7903.600,1379.236,962.040,1309.204,274.572,131.858,-364.141,-149.723,-43.783,211.793
30913,-275,1915,7401,-176.714,1416.329,7906.500,1363.822,952.447,1307.862,233.714,250.714,28.999,-154.148,-95.938,-13.418
31013,899,1737,10627,-129.443,1442.700,7941.457,1342.779,935.249,1346.827,472.714,263.713,349.570,-210.428,-171.976,389.648
31113,696,625,7458,-94.643,1447.671,7955.872,1332.112,929.949,1336.134,348.000,49.714,144.146,-106.670,-52.997,-106.931
31213,-2639,1278,4969,-119.486,1472.243,7884.986,1362.762,901.998,1360.863,-248.429,245.714,-708.857,306.505,-279.511,247.286
31313,2883,1577,7215,-30.429,1482.929,7848.829,1352.329,898.739,1344.461,890.571,106.858,-361.572,-104.335,-32.589,-164.015
31413,-1790,2543,8072,-33.271,1513.171,7833.443,1355.811,898.283,1335.628,-28.429,302.428,-153.857,34.823,-4.559,-88.334
31513,449,1656,8945,2.014,1526.700,7861.214,1335.611,893.187,1338.238,352.857,135.286,277.715,-201.997,-50.964,26.104
31613,473,2032,10054,34.900,1529.543,7898.186,1318.352,894.473,1362.341,328.857,28.429,369.712,-172.598,12.861,241.031
31713,1479,1735,5765,65.186,1537.457,7880.457,1326.800,893.805,1381.772,302.857,79.143,-177.285,84.485,-6.682,194.309
31813,562,2275,6023,97.829,1556.557,7866.643,1310.412,895.075,1395.372,326.429,191.000,-138.140,-163.883,12.703,136.002
31913,-1298,1793,6968,113.886,1571.814,7847.229,1286.098,889.858,1398.283,160.571,152.572,-194.146,-243.140,-52.172,29.109
32013,762,2250,5696,112.157,1599.614,7804.314,1285.144,880.160,1417.419,-17.286,277.999,-429.141,-9.541,-96.974,191.359
32113,2180,1964,8613,193.171,1590.657,7858.929,1233.146,873.189,1373.184,810.143,-89.572,546.143,-519.979,-69.717,-442.347
32213,-1412,1349,9413,185.157,1608.143,7876.257,1241.699,855.745,1384.982,-80.143,174.857,173.286,85.535,-174.439,117.975
32313,1745,1877,9500,219.386,1602.686,7908.957,1251.166,852.790,1395.868,342.286,-54.572,326.997,94.667,-29.551,108.865
32413,-1026,1005,7498,221.386,1583.900,7927.914,1249.060,851.264,1381.069,20.000,-187.856,189.570,-21.060,-15.258,-147.993
32513,674,1220,6595,246.300,1581.971,7907.386,1240.416,851.933,1390.020,249.143,-19.286,-205.283,-86.437,6.689,89.512
32613,-777,1444,7774,254.914,1585.614,7878.486,1231.151,850.789,1371.338,86.143,36.428,-288.999,-92.649,-11.436,-186.827
32713,-139,1157,5603,262.529,1569.829,7837.872,1227.037,848.341,1395.810,76.143,-157.856,-406.143,-41.149,-24.486,244.724
32813,-185,1423,10105,274.300,1567.643,7849.100,1218.706,848.519,1410.761,117.714,-21.858,112.285,-83.304,1.784,149.509
32913,-234,976,7845,284.157,1554.000,7848.971,1211.745,850.242,1410.761,98.571,-136.428,-1.289,-69.612,17.235,0.000
33013,523,1881,8660,317.657,1543.200,7892.700,1185.178,841.171,1387.592,335.000,-108.000,437.290,-265.665,-90.717,-231.689
33113,1726,1051,9346,334.714,1546.771,7921.814,1196.677,838.539,1396.371,170.572,35.715,291.143,114.983,-26.323,87.792
33213,-946,1125,9064,322.471,1568.371,7933.671,1205.302,807.342,1402.482,-122.429,216.000,118.569,86.251,-311.969,61.112
33313,348,397,7798,350.414,1571.229,7928.043,1182.684,802.825,1402.225,279.428,28.571,-56.284,-226.174,-45.169,-2.576
33413,-300,301,10271,358.471,1574.114,7940.557,1176.288,797.875,1419.069,80.572,28.857,125.142,-63.969,-49.493,168.440
33513,-87,167,8827,348.729,1555.071,7954.729,1177.112,815.138,1422.892,-97.429,-190.428,141.714,8.245,172.623,38.232
33613,345,38,8898,372.914,1540.757,7958.157,1159.259,832.666,1424.870,241.857,-143.142,34.287,-178.530,175.285,19.783
33713,446,439,8834,384.943,1542.557,7966.914,1155.581,830.143,1428.338,120.286,17.999,87.568,-36.785,-25.236,34.679
33813,631,272,8026,393.357,1551.971,7963.657,1155.197,811.740,1427.940,84.143,94.143,-32.568,-3.833,-184.030,-3.983
33913,473,595,10059,414.386,1543.329,7977.986,1142.993,818.633,1443.773,210.286,-86.428,143.286,-122.039,68.931,158.336
34013,378,317,6712,442.586,1486.243,7969.786,1117.103,760.788,1449.300,282.000,-570.858,-82.002,-258.903,-578.450,55.264
34113,1995,-1361,10331,467.986,1428.586,8008.043,1131.802,819.205,1475.541,254.000,-576.571,382.573,146.990,584.176,262.407
34213,-1123,227,9678,425.500,1421.286,8025.614,1134.904,827.561,1487.947,-424.857,-72.999,175.713,31.021,83.554,124.062
34313,210,442,6057,418.771,1410.700,7978.743,1134.766,835.245,1497.514,-67.286,-105.858,-468.716,-1.387,76.838,95.668
34413,2439,-52,9572,429.486,1389.686,7995.343,1150.145,853.086,1508.601,107.143,-210.143,166.001,153.790,178.411,110.878
34513,157,148,7629,429.157,1365.929,8031.929,1150.219,864.107,1467.664,-3.286,-237.571,365.859,0.746,110.212,-409.373
34613,1683,-15,8492,440.357,1350.043,8032.486,1158.526,878.998,1467.831,112.000,-158.857,5.571,83.074,148.910,1.670
34713,-106,2270,7314,442.171,1352.786,8042.857,1157.570,881.561,1460.133,18.143,27.429,103.711,-9.568,25.630,-76.982
34813,2174,1092,7375,471.443,1349.171,8063.514,1174.955,882.104,1440.173,292.715,-36.144,206.572,173.855,5.431,-199.598
34913,407,511,6937,467.671,1324.886,8037.914,1174.732,881.444,1444.038,-37.715,-242.856,-256.001,-2.229,-6.602,38.651
35013,1510,471,8471,494.443,1320.271,8021.229,1176.826,885.049,1432.140,267.715,-46.143,-166.855,20.935,36.052,-118.977
35113,-1289,1046,8486,472.429,1325.314,8036.514,1195.422,882.462,1431.309,-220.143,50.428,152.856,185.957,-25.865,-8.315
35213,749,1402,6130,483.343,1322.329,8023.014,1194.409,881.844,1444.708,109.143,-29.857,-135.000,-10.127,-6.183,133.990
35313,2752,1345,6987,538.871,1310.657,8010.443,1208.155,876.041,1449.831,555.285,-116.715,-125.713,137.466,-58.030,51.229
35413,625,812,7440,544.071,1296.486,8011.800,1207.732,875.969,1449.251,52.000,-141.714,13.569,-4.238,-0.717,-5.793
35513,1556,813,8477,545.014,1269.143,8038.514,1208.495,860.628,1440.318,9.429,-273.429,267.144,7.637,-153.416,-89.337
35613,474,891,8737,551.100,1254.700,8047.086,1207.049,858.366,1442.662,60.857,-144.429,85.718,-14.463,-22.615,23.439
35713,1085,1211,8126,543.271,1248.200,8046.900,1201.772,856.949,1442.651,-78.286,-65.000,-1.860,-52.769,-14.174,-0.109
35813,1342,1181,6653,578.729,1239.629,8024.600,1188.123,854.574,1451.930,354.572,-85.714,-222.998,-136.494,-23.749,92.795
35913,685,33,7418,534.943,1219.814,8023.829,1125.260,866.163,1452.238,-437.857,-198.142,-7.715,-628.632,115.893,3.074
36013,2293,531,6669,558.471,1214.786,7992.314,1144.392,869.121,1457.352,235.286,-50.286,-315.142,191.324,29.575,51.143
36113,3362,-214,7075,586.529,1202.929,7933.457,1187.880,882.764,1409.220,280.571,-118.572,-588.574,434.883,136.428,-481.323
36213,4255,403,10783,637.486,1195.900,7968.086,1265.136,887.135,1448.486,509.572,-70.286,346.289,772.556,43.716,392.667
36313,-694,1062,10036,625.643,1183.371,7996.471,1273.635,882.734,1469.116,-118.428,-125.286,283.853,84.996,-44.012,206.298
36413,996,781,8017,615.929,1170.400,8021.229,1268.169,881.880,1454.580,-97.143,-129.714,247.573,-54.669,-8.543,-145.365
36513,1970,1165,6976,639.971,1162.814,8035.286,1277.623,879.607,1439.579,240.428,-75.857,140.571,94.547,-22.729,-150.010
36613,-1662,1199,8204,612.800,1133.386,8045.229,1305.756,842.668,1438.305,-271.714,-294.286,99.429,281.327,-369.387,-12.733
36713,859,145,5137,597.471,1111.014,7988.286,1296.444,847.808,1472.994,-153.286,-223.715,-569.429,-93.115,51.400,346.887
36813,-479,1353,6295,606.300,1079.686,7925.643,1286.945,796.198,1450.256,88.286,-313.286,-626.426,-94.996,-516.099,-227.379
36913,1499,739,8340,624.714,1080.686,7957.043,1290.360,795.726,1435.013,184.143,10.000,313.999,34.152,-4.727,-152.435
37013,458,2181,11084,602.900,1087.343,8039.057,1280.045,802.921,1447.274,-218.143,66.572,820.142,-103.146,71.956,122.610
37113,1500,-432,10044,582.057,1031.886,8039.886,1253.106,771.258,1448.404,-208.429,-554.572,8.286,-269.390,-316.630,11.307
37213,325,120,10952,596.014,1022.443,8066.971,1244.696,778.286,1484.432,139.572,-94.429,270.854,-84.100,70.283,360.281
37313,-1744,1002,5935,542.557,1006.457,8047.014,1263.549,766.968,1503.448,-534.572,-159.857,-199.570,188.524,-113.185,190.161
37413,1768,-376,9415,561.143,965.629,8081.729,1271.842,763.395,1506.577,185.858,-408.286,347.144,82.930,-35.727,31.285
37513,-145,-958,9414,554.843,926.314,8106.357,1274.229,790.118,1514.045,-63.000,-393.143,246.284,23.877,267.224,74.678
37613,928,-752,6952,570.971,911.571,8080.029,1271.703,811.382,1517.860,161.286,-147.429,-263.281,-25.262,212.639,38.156
37713,982,-28,7394,576.443,890.400,8050.829,1272.636,816.272,1511.101,54.714,-211.714,-292.002,9.324,48.904,-67.590
37813,3735,879,9349,629.929,881.157,8100.214,1324.525,812.678,1496.156,534.857,-92.429,493.857,518.889,-35.942,-149.449
37913,1724,25,10481,658.486,854.157,8144.214,1326.255,809.270,1520.045,285.571,-270.000,440.000,17.300,-34.073,238.884
38013,-2419,1313,11042,611.086,848.100,8150.143,1375.201,804.211,1530.490,-474.000,-60.572,59.287,489.460,-50.595,104.457
38113,724,-2,7418,611.486,839.143,8149.571,1375.229,810.116,1530.756,4.000,-89.571,-5.718,0.288,59.050,2.656
38213,-947,1234,8359,635.657,838.514,8198.000,1332.078,809.792,1482.221,241.714,-6.286,484.287,-431.514,-3.237,-485.348
38313,3481,353,8277,644.200,821.029,8213.172,1348.282,806.867,1477.510,85.428,-174.857,151.719,162.041,-29.253,-47.114
38413,-1064,1096,8614,654.571,800.357,8220.914,1332.214,780.594,1478.170,103.714,-206.714,77.422,-160.679,-262.728,6.600
38513,1152,1907,8452,664.614,803.943,8213.871,1333.276,785.080,1475.876,100.428,35.858,-70.430,10.619,44.858,-22.942
38613,111,-1160,4651,659.443,758.343,8136.686,1334.710,804.877,1518.296,-51.714,-456.000,-771.855,14.343,197.975,424.203
38713,3262,-1605,8620,684.914,710.629,8177.471,1366.737,843.632,1492.160,254.714,-477.142,407.856,320.264,387.550,-261.362
38813,2463,224,9127,712.071,681.329,8221.814,1382.817,824.184,1473.480,271.571,-293.000,443.433,160.798,-194.484,-186.796
38913,1446,37,9682,751.271,656.243,8260.586,1364.046,816.656,1475.684,392.000,-250.857,387.715,-187.711,-75.285,22.034
39013,-2169,202,5469,709.400,626.986,8257.343,1407.371,795.444,1481.554,-418.714,-292.571,-32.432,433.257,-212.113,58.700
39113,155,-1148,8418,680.471,582.529,8254.558,1397.624,806.366,1481.066,-289.286,-444.572,-27.852,-97.473,109.216,-4.880
39213,193,47,7876,703.400,563.929,8232.600,1376.108,803.483,1475.110,229.286,-186.000,-219.580,-215.161,-28.831,-59.559
39313,-2076,-60,3130,648.814,536.257,8141.600,1409.096,791.043,1586.402,-545.858,-276.714,-909.995,329.885,-124.396,1112.922
39413,2171,-3217,10347,694.486,475.943,8182.300,1405.879,905.657,1605.796,456.714,-603.143,406.997,-32.175,1146.139,193.939
39513,-4263,-1112,8879,623.957,442.629,8214.929,1524.011,920.445,1596.388,-705.286,-333.143,326.289,1181.324,147.876,-94.073
39613,572,-1899,9754,643.229,394.871,8243.214,1514.674,953.386,1605.839,192.714,-477.571,282.852,-93.368,329.410,94.502
39713,1397,-1321,9599,665.171,359.471,8300.300,1514.309,970.285,1581.814,219.429,-354.000,570.859,-3.650,168.997,-240.243
39813,-1708,-802,7958,643.414,327.686,8269.629,1537.137,971.368,1567.272,-217.571,-317.857,-306.709,228.278,10.830,-145.422
39913,-3678,-353,7964,594.214,308.700,8271.328,1617.453,971.499,1566.875,-492.000,-189.857,16.992,803.153,1.309,-3.970
40013,-4220,97,13683,526.457,283.214,8343.086,1715.396,953.145,1692.975,-677.571,-254.857,717.578,979.436,-183.543,1260.999
40113,3348,-1150,7949,549.629,251.771,8323.129,1742.189,963.545,1689.265,231.714,-314.429,-199.570,267.925,104.005,-37.102
40213,-4103,300,8163,504.529,239.986,8310.257,1819.471,957.821,1687.002,-451.000,-117.857,-128.721,772.820,-57.245,-22.629
40313,802,-1081,7844,511.014,218.871,8310.914,1819.710,970.336,1686.811,64.857,-211.143,6.572,2.397,125.148,-1.907
40413,-19,-477,6557,515.029,207.757,8257.857,1818.226,973.781,1682.729,40.143,-111.143,-530.566,-14.843,34.452,-40.820
40513,1111,428,2346,532.143,211.486,8165.271,1818.117,974.117,1821.446,171.143,37.286,-925.859,-1.090,3.364,1387.166
40613,2469,-2236,12000,562.486,179.000,8209.586,1832.408,1016.363,1875.661,303.428,-324.857,443.145,142.914,422.454,542.153
40713,367,-936,9437,561.357,159.357,8218.200,1832.504,1024.403,1879.889,-11.286,-196.429,86.143,0.957,80.406,42.280
40813,-1637,-776,8819,528.957,144.386,8229.528,1850.943,1030.289,1881.086,-324.000,-149.714,113.281,184.393,58.856,11.965
40913,351,-2204,9524,527.214,104.400,8221.886,1851.053,1065.730,1874.713,-17.429,-399.857,-76.426,1.093,354.409,-63.726
41013,-1768,1686,4834,496.557,123.957,8195.058,1870.934,1081.890,1909.248,-306.572,195.571,-268.281,198.816,161.606,345.352
41113,-88,401,1771,466.800,149.129,8072.771,1863.415,1067.450,2038.296,-297.571,251.714,-1222.861,-75.193,-144.408,1290.479
41213,3516,-2152,10982,533.071,115.143,8091.400,1888.026,1101.750,2058.738,662.714,-339.857,186.284,246.105,343.000,204.418
41313,-734,-1847,6910,519.586,82.443,8103.586,1893.648,1125.281,2049.162,-134.857,-327.000,121.860,56.227,235.311,-95.754
41413,-1377,-2069,8911,465.071,53.629,8094.143,1892.534,1153.817,2043.890,-545.143,-288.143,-94.429,-11.138,285.359,-52.722
41513,-1785,-1518,8634,437.329,29.829,8108.500,1910.991,1168.711,2044.102,-277.429,-238.000,143.569,184.569,148.942,2.119
41613,-211,-2918,9057,410.271,-11.643,8116.571,1906.566,1219.949,2046.714,-270.572,-414.714,80.713,-44.257,512.379,26.121
41713,-609,-2968,7336,403.086,-86.471,8116.886,1909.444,1238.210,2046.593,-71.857,-748.286,3.145,28.779,182.610,-1.215
41813,3010,-1084,5842,415.029,-117.557,8094.986,1923.049,1235.545,2062.554,119.428,-310.857,-218.999,136.050,-26.643,159.613
41913,-3452,-321,7228,359.900,-129.443,8099.143,1977.044,1233.442,2060.508,-551.286,-118.857,41.572,539.954,-21.039,-20.459
42013,-320,-1360,4276,333.757,-155.600,8039.214,1973.760,1239.829,2109.249,-261.429,-261.572,-599.287,-32.843,63.876,487.412
42113,-986,-1148,6771,338.086,-186.943,8014.714,1970.526,1236.785,2113.873,43.286,-313.428,-245.000,-32.340,-30.442,46.233
42213,-76,-882,8191,326.300,-219.571,8044.157,1970.500,1224.502,2101.735,-117.857,-326.286,294.429,-0.255,-122.826,-121.377
42313,-544,-1285,9598,279.214,-257.143,8081.457,1951.260,1216.240,2105.808,-470.857,-375.714,372.998,-192.400,-82.620,40.728
42413,-1232,-3121,8614,252.686,-313.329,8098.229,1958.987,1255.755,2105.307,-265.286,-561.857,167.715,77.266,395.149,-5.010
42513,1908,-4922,7965,257.714,-395.257,8090.914,1962.774,1362.172,2104.867,50.286,-819.286,-73.145,37.874,1064.167,-4.392
42613,-6368,-415,12451,159.971,-413.914,8143.971,2114.096,1353.342,2166.395,-977.429,-186.571,530.571,1513.224,-88.297,615.273
42713,-297,-2995,9530,140.229,-474.000,8164.029,2111.818,1373.090,2172.625,-197.429,-600.857,200.576,-22.788,197.478,62.307
42813,-520,-1735,10178,113.629,-515.657,8214.386,2108.236,1366.466,2177.864,-266.000,-416.572,503.569,-35.813,-66.244,52.388
42913,-1620,-1255,8563,80.700,-534.057,8230.743,2117.038,1367.625,2176.121,-329.286,-184.000,163.574,88.013,11.594,-17.434
43013,-621,-1134,7580,39.071,-557.843,8243.757,2101.721,1363.367,2169.456,-416.286,-237.857,130.137,-153.167,-42.579,-66.648
43113,307,-1587,8849,-4.571,-577.457,8269.100,2063.640,1368.147,2166.013,-436.429,-196.143,253.428,-380.808,47.800,-34.426
43213,-2600,-2,5867,-102.500,-583.243,8198.871,2021.399,1364.841,2163.061,-979.286,-57.857,-702.285,-422.411,-33.060,-29.526
43313,1988,-1284,5594,-64.186,-616.757,8135.414,2035.195,1352.780,2173.367,383.143,-335.143,-634.570,137.961,-120.610,103.062
43413,886,-1525,7281,-65.757,-649.700,8124.900,2034.418,1346.404,2175.693,-15.714,-329.429,-105.142,-7.769,-63.763,23.264
43513,-94,-1757,9574,-95.243,-691.443,8162.014,2019.603,1334.740,2177.936,-294.857,-417.429,371.143,-148.158,-116.633,22.427
43613,-1,-884,8706,-71.514,-721.200,8169.186,2010.793,1315.341,2178.888,237.286,-297.571,71.714,-88.092,-193.994,9.524
43713,-581,-737,7693,-92.086,-733.800,8205.700,2008.533,1311.201,2148.980,-205.714,-126.000,365.146,-22.601,-41.400,-299.080
43813,241,-1577,6997,-81.800,-775.657,8215.729,2008.369,1290.520,2141.666,102.857,-418.572,100.283,-1.638,-206.807,-73.142
43913,-1677,-1275,10026,-127.171,-804.429,8239.814,2008.020,1278.829,2152.382,-453.714,-287.714,240.859,-3.497,-116.917,107.158
44013,670,-1118,6240,-124.143,-851.557,8170.614,2009.059,1227.706,2137.646,30.286,-471.285,-692.002,10.396,-511.230,-147.366
44113,-350,-2221,8679,-150.571,-877.114,8151.114,1999.667,1237.289,2126.665,-264.286,-255.571,-195.000,-93.925,95.834,-109.805
44213,-691,-2059,9607,-165.086,-908.243,8131.900,1999.849,1239.220,2107.260,-145.143,-311.286,-192.144,1.825,19.314,-194.048
44313,2638,-2734,8838,-102.486,-961.614,8173.372,2017.947,1236.248,2092.128,626.000,-533.714,414.717,180.980,-29.725,-151.326
44413,-1783,-1358,8696,-153.214,-975.643,8163.100,2014.920,1235.094,2087.767,-507.286,-140.286,-102.715,-30.275,-11.536,-43.606
44513,319,-2013,6575,-146.586,-990.714,8122.543,2015.699,1241.209,2090.646,66.286,-150.714,-405.571,7.788,61.144,28.794
44613,-70,-749,9700,-160.843,-990.671,8161.800,2011.573,1241.217,2094.095,-142.571,0.428,392.568,-41.256,0.083,34.490
44713,56,702,8155,-174.071,-980.243,8172.671,2007.053,1252.279,2092.056,-132.286,104.286,108.716,-45.198,110.619,-20.398
44813,-56,658,7913,-228.229,-983.400,8152.157,1951.213,1247.858,2087.456,-541.572,-31.572,-205.142,-558.400,-44.205,-45.999
44913,515,299,7582,-245.500,-979.486,8110.743,1939.170,1251.440,2069.522,-172.714,39.143,-414.146,-120.432,35.815,-179.338
45013,442,115,7525,-204.629,-996.600,8060.500,1923.012,1227.943,2040.233,408.714,-171.143,-502.427,-161.581,-234.972,-292.886
45113,-485,503,8227,-221.900,-989.386,8072.057,1920.021,1235.227,2038.852,-172.714,72.142,115.571,-29.911,72.841,-13.813
45213,-385,811,8770,-213.871,-995.429,8077.929,1918.146,1225.330,2040.261,80.286,-60.428,58.716,-18.749,-98.969,14.089
45313,934,-446,8609,-250.257,-1006.843,8082.671,1871.297,1216.405,2041.104,-363.857,-114.142,47.427,-468.485,-89.252,8.431
45413,51,627,7434,-234.329,-1013.543,8065.814,1869.047,1206.052,2041.519,159.286,-67.000,-168.569,-22.504,-103.533,4.148
45513,-122,103,8715,-252.529,-1039.314,8069.571,1861.647,1161.832,2042.468,-182.000,-257.715,37.568,-73.999,-442.191,9.489
45613,-218,317,8846,-257.229,-1018.214,8129.500,1861.139,1172.809,2002.435,-47.000,211.000,599.287,-5.084,109.767,-400.330
45713,-166,953,8068,-306.200,-981.671,8121.614,1812.355,1193.623,2001.574,-489.714,365.428,-78.857,-487.839,208.143,-8.607
45813,589,-241,8040,-332.971,-988.314,8106.086,1784.884,1188.177,1997.927,-267.714,-66.428,-155.283,-274.706,-54.469,-36.469
45913,1028,21,8877,-338.943,-988.543,8094.586,1779.614,1187.981,1991.128,-59.714,-2.286,-115.000,-52.700,-1.958,-67.990
46013,-829,162,8572,-319.800,-989.114,8138.914,1766.988,1187.417,1966.571,191.429,-5.714,443.281,-126.265,-5.634,-245.571
46113,84,-1573,7863,-320.814,-995.186,8130.986,1766.735,1189.299,1966.549,-10.143,-60.715,-79.282,-2.526,18.820,-0.222
46213,95,-534,9633,-322.214,-1003.486,8156.086,1766.366,1184.013,1974.331,-14.000,-83.000,251.001,-3.690,-52.867,77.823
46313,502,-895,7901,-285.386,-1015.414,8224.243,1756.263,1178.641,1879.731,368.286,-119.286,681.572,-101.031,-53.712,-946.001
46413,-1244,-718,7460,-334.171,-979.714,8183.000,1734.650,1148.887,1864.312,-487.857,357.000,-412.432,-216.134,-297.542,-154.189
46513,1187,-1763,8874,-256.314,-989.014,8182.929,1677.944,1152.549,1864.286,778.571,-93.000,-0.713,-567.059,36.622,-0.266
46613,943,-1188,8125,-251.014,-978.857,8159.657,1681.135,1147.608,1854.671,53.000,101.572,-232.715,31.908,-49.418,-96.144
46713,-56,-274,7997,-271.771,-963.900,8136.771,1669.589,1149.871,1846.636,-207.571,149.571,-228.857,-115.460,22.638,-80.354
46813,74,437,8091,-246.314,-946.200,8138.671,1661.059,1161.702,1846.520,254.571,177.000,18.999,-85.293,118.309,-1.163
46913,71,137,8251,-192.757,-939.200,8142.771,1609.178,1166.721,1846.446,535.571,70.000,41.001,-518.815,50.189,-0.739
47013,186,295,7403,-129.814,-936.371,8053.057,1534.876,1169.467,1723.556,629.429,28.286,-897.144,-743.015,27.455,-1228.901
47113,23,26,8768,-177.314,-919.571,8064.757,1476.866,1174.712,1725.588,-475.000,168.000,117.002,-580.099,52.456,20.325
47213,-730,468,8936,-129.129,-917.171,8075.800,1401.077,1177.370,1728.652,481.857,24.000,110.425,-757.889,26.578,30.640
47313,57,286,7422,-139.771,-897.643,8069.771,1396.787,1185.798,1730.185,-106.429,195.286,-60.283,-42.900,84.275,15.331
47413,-37,1572,9024,-140.029,-868.371,8105.014,1396.766,1220.599,1724.127,-2.571,292.715,352.427,-0.211,348.013,-60.582
47513,424,1915,8249,-149.843,-847.129,8189.343,1390.340,1255.419,1578.605,-98.143,212.428,843.286,-64.258,348.197,-1455.215
47613,-68,2864,8464,-186.086,-774.271,8138.829,1354.198,1319.076,1510.985,-362.429,728.572,-505.142,-361.423,636.571,-676.201
47713,-621,1998,6770,-200.200,-732.357,8100.729,1353.509,1359.273,1511.396,-141.143,419.143,-381.001,-6.895,401.973,4.103
47813,100,1154,7258,-175.386,-704.786,8078.429,1342.820,1377.559,1512.149,248.143,275.714,-222.998,-106.885,182.861,7.537
47913,366,373,9416,-175.171,-667.971,8076.886,1342.905,1371.423,1510.728,2.143,368.143,-15.430,0.852,-61.366,-14.215
48013,316,1425,8474,-145.400,-671.700,8128.886,1330.305,1365.359,1460.005,297.714,-37.286,520.000,-126.007,-60.636,-507.224
48113,234,1515,8396,-140.800,-655.786,8223.528,1331.052,1384.132,1243.467,46.000,159.143,946.426,7.471,187.734,-2165.386
48213,625,2407,6134,-182.100,-590.657,8154.271,1259.897,1419.017,1222.736,-413.000,651.285,-692.568,-711.550,348.846,-207.305
48313,510,1358,7623,-164.329,-544.871,8164.457,1260.760,1429.409,1215.276,177.714,457.858,101.855,8.632,103.923,-74.606
48413,945,1402,9220,-131.157,-495.286,8168.872,1258.963,1435.867,1218.536,331.714,495.857,44.146,-17.971,64.578,32.605
48513,-235,1369,8757,-109.014,-454.043,8170.628,1243.212,1447.315,1219.294,221.429,412.429,17.568,-157.506,114.482,7.579
48613,1074,707,7097,-90.657,-402.257,8142.628,1251.033,1422.873,1221.121,183.571,517.857,-280.000,78.209,-244.425,18.271
48713,57,1597,6851,-81.143,-337.043,8135.700,1249.587,1408.323,1227.040,95.143,652.143,-69.282,-14.463,-145.503,59.188
48813,825,1006,6420,-112.357,-307.186,8143.957,1198.215,1414.312,1213.447,-312.143,298.571,82.568,-513.715,59.894,-135.933
48913,-511,2082,8494,-70.343,-272.857,8162.043,1129.997,1442.443,1209.087,420.143,343.286,180.859,-682.181,281.313,-43.601
49013,244,1100,8271,-62.286,-237.714,8219.114,1130.199,1445.492,1114.931,80.571,351.429,570.713,2.017,30.491,-941.561
49113,236,675,8675,-44.829,-211.671,8246.314,1125.223,1445.280,1102.425,174.571,260.428,272.002,-49.758,-2.126,-125.054
49213,969,1205,7800,-29.900,-181.857,8240.729,1131.624,1452.652,1103.681,149.286,298.143,-55.859,64.014,73.718,12.560
49313,-154,915,8212,-24.329,-150.429,8220.929,1130.039,1452.243,1091.520,55.714,314.286,-197.998,-15.858,-4.082,-121.615
49413,214,1978,6180,-3.671,-77.586,8186.157,1120.953,1429.112,1116.917,206.571,728.429,-347.715,-90.853,-231.315,253.977
49513,550,-415,9029,-23.071,-13.200,8201.357,1099.242,1305.595,1121.036,-194.000,643.857,152.002,-217.115,-1235.165,41.191
49613,-1706,708,9471,43.529,2.843,8158.786,818.072,1307.458,1009.924,666.000,160.429,-425.718,-2811.700,18.625,-1111.124
49713,1798,619,8587,73.457,54.471,8145.314,843.008,1258.498,997.760,299.286,516.286,-134.712,249.365,-489.597,-121.645
49813,-1683,955,6954,56.843,92.900,8099.257,865.696,1244.259,977.063,-166.143,384.286,-460.571,226.876,-142.393,-206.968
49913,4186,-225,9219,139.786,107.614,8108.628,972.600,1234.282,984.583,829.429,147.143,93.711,1069.047,-99.768,75.201
50013,-1820,1169,7139,122.657,140.514,8102.329,996.121,1231.439,989.345,-171.286,329.000,-62.998,235.209,-28.436,47.618
50113,34,343,10203,118.757,168.086,8121.671,995.926,1213.933,1016.614,-39.000,275.714,193.428,-1.951,-175.055,272.694
50213,1830,166,7517,182.043,170.486,8145.243,961.303,1213.761,982.624,632.857,24.000,235.713,-346.235,-1.725,-339.901
50313,-638,-82,8411,144.529,187.657,8185.486,941.122,1201.503,933.786,-375.143,171.714,402.432,-201.812,-122.579,-488.383
50413,551,884,7644,139.743,222.071,8190.671,938.186,1186.359,929.748,-47.857,344.143,51.855,-29.355,-151.433,-40.381
50513,281,562,7407,145.100,255.200,8159.714,937.907,1162.776,919.189,53.571,331.286,-309.570,-2.793,-235.831,-105.584
50613,566,-1086,7771,153.200,252.314,8146.357,939.058,1165.846,917.947,81.000,-28.857,-133.574,11.509,30.702,-12.427
50713,848,-289,7480,173.614,258.714,8143.314,938.407,1161.620,919.795,204.143,64.000,-30.425,-6.503,-42.264,18.488
50813,-346,499,7129,165.229,288.371,8145.200,940.388,1140.686,917.576,-83.857,296.571,18.857,19.810,-209.336,-22.193
50913,758,193,7524,200.014,309.343,8109.457,916.328,1125.140,891.990,347.857,209.714,-357.432,-240.604,-155.468,-255.859
51013,74,369,7499,191.500,330.586,8127.443,914.689,1111.951,866.441,-85.143,212.429,179.858,-16.390,-131.888,-255.493
51113,74,597,7473,197.557,370.843,8110.214,912.484,1069.027,867.292,60.571,402.571,-172.285,-22.047,-429.235,8.514
51213,803,718,9386,218.900,410.514,8107.057,908.917,1028.894,862.225,213.428,396.714,-31.572,-35.676,-401.335,-50.670
51313,-485,-393,8671,174.286,443.957,8104.671,864.648,962.014,860.429,-446.143,334.429,-23.857,-442.685,-668.798,-17.966
51413,-623,927,7431,190.857,476.600,8086.600,837.672,938.804,861.103,165.714,326.429,-180.713,-269.759,-232.104,6.747
51513,651,-407,9046,195.600,499.543,8121.900,839.323,896.345,848.976,47.429,229.428,352.998,16.503,-424.583,-121.273
51613,-643,715,8129,187.414,520.457,8099.457,844.650,883.963,827.454,-81.857,209.143,-224.429,53.278,-123.818,-215.220
51713,1453,-407,8196,207.371,504.614,8100.043,857.712,890.482,827.508,199.571,-158.429,5.859,130.621,65.182,0.536
51813,-937,750,7998,194.786,505.929,8101.257,867.888,890.775,827.294,-125.857,13.143,12.144,101.755,2.933,-2.131
51913,323,-340,7824,192.043,496.800,8104.714,867.175,896.107,825.621,-27.429,-91.286,34.570,-7.131,53.322,-16.732
52013,-1231,357,8662,168.143,500.257,8120.957,882.869,895.094,825.241,-239.000,34.572,162.427,156.942,-10.134,-3.804
52113,1240,-339,7678,192.786,488.229,8113.114,888.352,900.617,826.803,246.429,-120.286,-78.428,54.827,55.228,15.623
52213,-546,1224,8353,190.486,494.129,8107.157,890.051,904.058,823.545,-23.000,59.000,-59.570,16.997,34.414,-32.585
52313,577,-8,7305,185.386,500.386,8088.529,886.793,899.031,826.724,-51.000,62.571,-186.284,-32.581,-50.268,31.796
52413,336,-921,8601,189.457,478.271,8105.200,886.821,914.549,825.122,40.714,-221.143,166.714,0.280,155.183,-16.019
52513,-1559,1384,7566,168.929,496.571,8088.786,910.120,919.659,824.256,-205.286,183.000,-164.146,232.983,51.099,-8.658
52613,2301,-284,6676,204.914,487.986,8057.786,943.304,924.090,835.919,359.857,-85.857,-310.000,331.846,44.310,116.624
52713,-50,251,8924,206.571,477.957,8070.014,942.753,922.798,842.216,16.571,-100.286,122.285,-5.513,-12.927,62.975
52813,-396,653,8019,192.500,490.729,8069.714,944.290,918.937,842.231,-140.714,127.714,-2.998,15.367,-38.604,0.143
52913,63,338,7784,178.714,495.257,8054.100,939.021,917.391,837.236,-137.857,45.286,-156.143,-52.688,-15.460,-49.943
53013,68,298,8384,191.529,497.200,8051.414,931.270,916.827,835.871,128.143,19.429,-26.860,-77.508,-5.641,-13.652
53113,-62,607,8466,189.443,528.343,8060.029,931.672,882.355,836.991,-20.857,311.428,86.147,4.019,-344.725,11.201
53213,-392,552,8684,182.486,543.857,8046.471,934.166,873.038,818.893,-69.571,155.143,-135.576,24.941,-93.171,-180.978
53313,537,325,7752,182.986,561.286,8044.343,934.346,856.154,819.462,5.000,174.286,-21.284,1.803,-168.839,5.689
53413,-461,119,7544,194.171,573.243,8045.543,921.798,843.962,818.667,111.857,119.572,12.002,-125.478,-121.921,-7.956
53513,120,625,8554,178.929,607.357,8040.971,914.044,795.722,814.913,-152.429,341.143,-45.718,-77.540,-482.394,-37.540
53613,257,406,7754,169.129,630.129,8035.671,909.466,766.282,815.555,-98.000,227.715,-52.998,-45.787,-294.407,6.426
53713,334,520,7777,174.700,641.471,8032.529,909.264,758.653,816.122,55.714,113.428,-31.426,-2.016,-76.288,5.666
53813,629,355,8415,182.629,640.300,8037.157,910.770,759.031,817.358,79.286,-11.714,46.284,15.059,3.781,12.363
53913,511,30,8013,188.914,638.771,8033.757,911.496,760.150,816.957,62.857,-15.286,-33.999,7.260,11.189,-4.017
54013,-456,560,7068,179.743,642.557,8028.971,914.703,759.088,821.606,-91.714,37.857,-47.861,32.074,-10.623,46.490
54113,49,517,8277,180.114,649.571,8021.957,914.645,755.619,817.351,3.714,70.143,-70.142,-0.584,-34.691,-42.544
54213,-292,679,8263,186.371,652.586,8012.343,909.883,755.309,810.472,62.571,30.143,-96.143,-47.617,-3.095,-68.790
54313,42,546,7684,186.157,656.300,8016.086,909.916,754.136,808.339,-2.143,37.143,37.432,0.322,-11.735,-21.328
54413,325,428,7169,191.329,639.957,7989.586,909.661,746.471,805.263,51.714,-163.428,-265.000,-2.545,-76.644,-30.764
54513,608,432,8419,193.957,618.771,7992.014,910.595,730.865,806.297,26.286,-211.857,24.282,9.340,-156.063,10.344
54613,1,1026,8075,194.943,592.514,7986.457,910.348,681.049,804.363,9.857,-262.571,-55.571,-2.468,-498.157,-19.340
54713,847,-254,8669,215.914,560.343,8013.586,908.216,666.941,794.846,209.714,-321.714,271.289,-21.318,-141.083,-95.173
54813,-909,549,8410,201.500,551.700,8030.043,917.897,663.101,790.948,-144.143,-86.428,164.570,96.809,-38.402,-38.983
54913,-35,641,7086,195.771,555.529,7996.757,918.104,662.831,780.885,-57.286,38.286,-332.856,2.065,-2.692,-100.630
55013,222,291,8810,194.429,539.329,8001.557,917.996,655.197,784.826,-13.428,-162.000,47.998,-1.081,-76.345,39.415
55113,-783,579,7362,179.900,525.957,7986.786,925.273,644.614,786.991,-145.286,-133.714,-147.715,72.776,-105.826,21.647
55213,830,-705,9496,182.829,481.500,8034.814,927.000,620.202,774.950,29.286,-444.572,480.288,17.269,-244.128,-120.414
55313,-373,625,7731,170.214,471.029,8036.357,928.469,611.441,774.235,-126.143,-104.714,15.425,14.688,-87.609,-7.142
55413,470,318,6684,163.429,455.543,8000.128,924.509,601.309,777.329,-67.857,-154.857,-362.285,-39.599,-101.313,30.935
55513,305,-214,8159,171.143,432.929,7991.586,923.405,596.276,772.233,77.143,-226.143,-85.425,-11.045,-50.329,-50.958
55613,-507,64,7957,148.557,423.743,8003.872,920.375,596.936,764.708,-225.857,-91.857,122.856,-30.293,6.595,-75.255
55713,-406,233,7640,141.943,404.257,8015.143,922.670,580.352,753.362,-66.143,-194.857,112.715,22.949,-165.844,-113.453
55813,222,-94,7191,133.329,388.543,8026.157,919.061,578.735,735.382,-86.143,-157.143,110.142,-36.095,-16.161,-179.802
55913,207,-258,7631,143.586,355.114,8013.829,915.813,546.645,734.669,102.571,-334.286,-123.286,-32.474,-320.906,-7.131
56013,294,-263,8129,144.300,335.643,8011.800,915.911,544.034,734.152,7.143,-194.714,-20.288,0.975,-26.109,-5.170
56113,149,-231,7871,143.057,322.700,8000.314,915.845,546.578,729.964,-12.429,-129.428,-114.854,-0.662,25.436,-41.883
56213,-169,-126,8108,126.800,303.686,8004.714,911.127,538.647,729.671,-162.571,-190.143,43.999,-47.175,-79.303,-2.924
56313,7,-380,7247,129.100,285.186,7990.929,910.619,539.572,734.723,23.000,-185.000,-137.856,-5.087,9.244,50.519
56413,50,-308,8735,126.757,252.529,8027.429,910.608,504.143,706.785,-23.429,-326.571,365.000,-0.103,-354.285,-279.378
56513,264,-528,7914,122.671,250.914,8011.500,909.341,506.454,696.523,-40.857,-16.143,-159.287,-12.677,23.105,-102.620
56613,230,-917,7625,150.329,227.700,7985.128,882.343,521.975,675.391,276.571,-232.143,-263.716,-269.981,155.212,-211.323
56713,198,-1049,8056,127.471,203.871,7977.543,859.799,541.283,671.560,-228.571,-238.286,-75.854,-225.431,193.085,-38.315
56813,-189,-1252,8211,148.814,172.343,7995.500,832.709,560.547,660.668,213.429,-315.286,179.570,-270.903,192.639,-108.918
56913,-147,-1259,8493,86.914,157.571,7985.128,676.744,583.958,646.935,-619.000,-147.714,-103.716,-1559.655,234.110,-137.323
57013,95,-1134,7876,114.271,124.671,7995.657,636.622,590.882,639.028,273.571,-329.000,105.288,-401.221,69.238,-79.073
57113,6,-1291,7941,113.871,101.329,7963.343,636.681,613.634,581.163,-4.000,-233.428,-323.145,0.591,227.515,-578.652
57213,315,-1450,8365,92.229,78.243,7975.457,602.826,640.573,580.571,-216.429,-230.857,121.143,-338.549,269.394,-5.923
57313,0,-1465,8243,101.343,58.486,7973.057,596.506,666.033,579.111,91.143,-197.571,-23.999,-63.195,254.596,-14.600
57413,-33,-1519,8336,93.000,24.157,7982.943,594.238,684.277,579.315,-83.429,-343.286,98.857,-22.680,182.445,2.049
57513,-336,-1520,8058,84.186,-5.586,7992.243,595.958,705.182,575.206,-88.143,-297.429,92.998,17.197,209.045,-41.097
57613,-177,-1553,8276,73.571,-12.257,7999.457,593.895,717.473,575.552,-106.143,-66.714,72.144,-20.627,122.917,3.467
57713,-37,-1296,7982,60.929,-26.643,8006.628,586.650,732.810,572.153,-126.429,-143.857,71.714,-72.449,153.362,-33.997
57813,52,-746,8557,66.614,-44.429,8027.029,584.604,734.941,565.921,56.857,-177.857,204.004,-20.463,21.318,-62.318
57913,-208,572,7917,52.814,-39.014,8032.643,579.500,738.060,562.844,-138.000,54.143,56.143,-51.042,31.186,-30.773
58013,62,863,8183,52.643,-31.957,8042.414,579.495,744.263,559.421,-1.714,70.571,97.710,-0.045,62.032,-34.223
58113,35,1197,7792,52.086,-23.386,8046.971,579.493,754.837,556.053,-5.571,85.714,45.571,-0.023,105.740,-33.679
58213,52,498,7736,41.357,-26.529,8023.400,572.400,752.197,533.298,-107.286,-31.429,-235.713,-70.931,-26.400,-227.552
58313,-46,251,8154,47.629,-17.329,8016.014,568.994,751.597,527.830,62.714,92.000,-73.857,-34.064,-6.004,-54.678
58413,-55,146,8263,55.743,-28.486,8027.900,563.395,743.246,523.876,81.143,-111.571,118.857,-55.989,-83.505,-39.545
58513,-41,243,8003,45.857,-19.200,8013.000,558.917,742.519,509.338,-98.857,92.857,-148.999,-44.782,-7.269,-145.379
58613,26,548,7865,55.414,-21.586,8009.229,552.741,740.422,509.443,95.571,-23.857,-37.715,-61.750,-20.975,1.046
58713,4,485,7901,34.714,-8.843,8005.014,526.525,741.354,509.100,-207.000,127.429,-42.144,-262.162,9.324,-3.425
58813,-38,407,7990,47.557,-13.743,8004.900,513.469,737.446,509.103,128.429,-49.000,-1.143,-130.562,-39.084,0.026
58913,-39,367,8348,42.386,-3.643,8012.386,512.491,737.750,510.239,-51.714,101.000,74.858,-9.781,3.039,11.360
59013,-3,460,7791,59.929,-2.171,7999.943,489.085,738.570,504.837,175.429,14.714,-124.429,-234.059,8.201,-54.017
59113,-71,558,8161,41.200,10.643,8006.843,468.193,740.394,503.689,-187.286,128.143,68.999,-208.922,18.241,-11.479
59213,-59,421,8095,48.157,-0.829,8003.157,463.005,727.616,502.084,69.571,-114.714,-36.855,-51.877,-127.779,-16.050
59313,55,235,7926,40.700,2.643,8012.029,458.610,728.153,495.108,-74.571,34.714,88.716,-43.947,5.371,-69.765
59413,-7,451,8090,35.800,22.243,8004.729,457.259,721.462,490.112,-49.000,196.000,-73.003,-13.510,-66.913,-49.958
59513,7,509,7848,58.171,9.743,8008.757,415.046,705.156,487.642,223.714,-125.000,40.288,-422.130,-163.062,-24.700
59613,-60,425,8297,24.443,19.871,8031.914,315.379,705.955,461.595,-337.286,101.286,231.567,-996.670,7.995,-260.465
59713,-19,320,8117,24.886,20.857,8020.386,315.296,706.325,449.079,4.429,9.857,-115.283,-0.831,3.702,-125.163
59813,9,448,8013,30.671,17.929,8020.300,311.209,704.120,449.080,57.857,-29.286,-0.859,-40.869,-22.055,0.008
59913,0,485,7915,29.771,20.029,8022.171,311.206,705.289,448.364,-9.000,21.000,18.716,-0.038,11.696,-7.161
60013,-18,415,7738,28.543,21.700,8012.943,311.222,706.084,447.468,-12.286,16.714,-92.285,0.164,7.949,-8.951
60113,-16,362,8220,29.200,18.200,8009.429,311.079,703.778,444.855,6.571,-35.000,-35.142,-1.434,-23.063,-26.136
60213,-87,412,7954,33.557,16.200,7999.000,307.261,702.456,437.413,43.571,-20.000,-104.287,-38.174,-13.223,-74.417
60313,-103,533,7982,24.414,19.171,8002.286,301.615,704.193,436.408,-91.429,29.714,32.856,-56.465,17.377,-10.050
60413,-8,384,7997,30.886,22.957,8008.757,295.937,705.431,432.909,64.714,37.857,64.717,-56.781,12.378,-34.991
60513,-48,421,7805,28.486,20.043,7998.057,295.885,703.356,428.535,-24.000,-29.143,-107.002,-0.512,-20.748,-43.745
60613,-32,431,8269,24.357,20.400,8005.414,294.682,703.558,428.702,-41.286,3.571,73.569,-12.035,2.021,1.676
60713,-81,445,7913,18.429,19.329,8007.357,292.560,702.854,427.970,-59.286,-10.714,19.429,-21.223,-7.048,-7.320
60813,-125,495,7968,7.657,21.329,8000.971,283.625,704.004,425.166,-107.714,20.000,-63.857,-89.343,11.505,-28.045
60913,-90,381,7992,-0.929,26.343,8000.671,277.284,705.297,425.165,-85.857,50.143,-2.998,-63.411,12.927,-0.011
61013,-28,449,7911,5.186,24.757,8012.714,271.848,704.219,410.253,61.143,-15.857,120.430,-54.365,-10.777,-149.111
61113,-38,442,8235,3.943,23.686,8012.114,271.843,703.526,409.897,-12.429,-10.714,-6.001,-0.043,-6.931,-3.564
61213,-99,425,8071,6.700,20.057,8009.372,269.799,700.787,408.850,27.571,-36.286,-27.427,-20.445,-27.394,-10.469
61313,4,406,8004,6.157,18.057,8013.943,269.765,699.481,406.971,-5.429,-20.000,45.713,-0.334,-13.054,-18.789
61413,-10,364,8210,1.371,17.143,8028.814,267.024,698.987,394.658,-47.857,-9.143,148.716,-27.412,-4.948,-123.137
61513,51,398,7979,-6.586,16.657,8022.529,256.937,698.710,391.887,-79.571,-4.857,-62.856,-100.871,-2.766,-27.703
61613,-18,419,8111,-6.857,7.986,8023.043,256.939,689.840,391.979,-2.714,-86.714,5.142,0.019,-88.702,0.921
61713,-2,335,8067,-18.986,16.400,8014.443,235.490,690.185,384.240,-121.286,84.143,-86.001,-214.489,3.453,-77.391
61813,-10,426,7790,-6.143,14.643,8005.586,209.704,688.982,382.160,128.429,-17.571,-88.569,-257.862,-12.028,-20.799
61913,-6,436,8195,-5.729,11.714,8021.429,209.675,686.746,366.371,4.143,-29.286,158.428,-0.288,-22.364,-157.895
62013,6,407,7852,-8.814,13.371,8007.743,207.883,687.557,354.354,-30.857,16.571,-136.860,-17.924,8.115,-120.168
62113,-103,469,7954,0.900,11.800,8016.200,186.240,686.387,345.803,97.143,-15.714,84.575,-216.430,-11.699,-85.511
62213,-48,388,8076,-11.643,27.414,7995.914,157.296,682.324,296.540,-125.429,156.143,-202.861,-289.439,-40.637,-492.624
62313,-39,452,7750,-6.871,24.943,7996.186,151.210,680.465,296.307,47.714,-24.714,2.715,-60.857,-18.582,-2.340
62413,-17,481,8191,-13.829,27.271,8017.714,139.889,681.742,251.552,-69.571,23.286,215.288,-113.213,12.766,-447.540
62513,2,358,7919,-18.157,35.443,8014.286,134.542,682.229,251.239,-43.286,81.714,-34.287,-53.468,4.869,-3.137
62613,-101,450,7770,-12.357,40.957,8011.614,121.459,683.995,252.823,58.000,55.143,-26.714,-130.836,17.661,15.841
62713,-61,460,8240,-7.429,44.200,8020.186,112.018,685.435,250.236,49.286,32.429,85.713,-94.404,14.394,-25.864
62813,-78,415,7974,-11.714,51.471,8031.372,108.852,686.629,229.568,-42.857,72.714,111.860,-31.656,11.943,-206.684
62913,-82,482,7922,-15.843,62.043,8035.529,105.920,687.479,224.867,-41.286,105.714,41.572,-29.326,8.499,-47.011
63013,-73,430,8258,-21.086,71.943,8037.372,99.331,687.716,226.150,-52.429,99.000,18.428,-65.884,2.377,12.834
63113,-139,460,7962,-25.200,81.814,8038.671,98.159,688.256,225.451,-41.143,98.714,12.998,-11.726,5.397,-6.996
63213,-67,490,8135,-23.743,90.614,8039.057,96.760,689.480,225.592,14.571,88.000,3.857,-13.983,12.238,1.413
63313,-38,389,8091,-24.386,101.600,8051.114,96.704,688.019,204.506,-6.429,109.857,120.571,-0.569,-14.613,-210.860
63413,-17,408,7992,-25.343,111.829,8040.500,96.293,687.175,187.293,-9.571,102.286,-106.143,-4.103,-8.436,-172.133
63513,2,431,8240,-29.086,125.529,8045.157,89.850,683.834,188.141,-37.429,137.000,46.572,-64.430,-33.411,8.478
63613,-17,385,8084,-32.614,144.129,8051.714,84.284,672.843,181.255,-35.286,186.000,65.571,-55.664,-109.907,-68.851
63713,15,438,7926,-35.229,165.371,8049.857,79.810,658.152,181.867,-26.143,212.429,-18.574,-44.743,-146.914,6.116
63813,-34,392,8242,-33.014,188.857,8050.300,77.633,636.119,182.296,22.143,234.857,4.429,-21.765,-220.332,4.291
63913,-13,354,8122,-31.100,211.900,8045.000,76.442,612.012,174.578,19.143,230.428,-52.998,-11.913,-241.068,-77.181
64013,-21,439,7878,-32.757,234.371,8045.029,74.933,590.688,174.550,-16.571,224.714,0.288,-15.092,-213.238,-0.275
64113,-15,405,8148,-33.057,258.600,8047.986,74.819,561.696,174.516,-3.000,242.286,29.570,-1.138,-289.926,-0.340
64213,31,398,7832,-37.114,285.000,8040.372,62.525,522.855,172.130,-40.571,264.000,-76.143,-122.937,-388.401,-23.864
64313,-68,447,8075,-38.086,312.314,8037.971,62.469,478.808,170.451,-9.714,273.143,-24.004,-0.560,-440.475,-16.789
64413,-48,381,8039,-38.300,339.457,8033.729,62.477,425.062,166.633,-2.143,271.429,-42.427,0.079,-537.460,-38.176
64513,0,456,7719,-33.500,367.686,8028.886,51.334,361.498,170.733,48.000,282.285,-48.428,-111.426,-635.639,41.000
64613,-3,468,8170,-31.014,396.557,8027.372,48.458,278.012,168.996,24.857,288.714,-15.142,-28.766,-834.864,-17.372
64713,26,362,7942,-30.114,420.243,8026.800,48.921,189.266,169.216,9.000,236.857,-5.718,4.633,-887.459,2.199
64813,-53,466,7726,-31.614,437.557,8014.929,47.981,126.970,160.530,-15.000,173.143,-118.711,-9.401,-622.961,-86.862
64913,-55,457,8214,-29.429,435.914,8019.171,43.137,125.959,161.805,21.857,-16.429,42.427,-48.445,-10.102,12.755
65013,-30,399,7966,-30.743,429.286,8016.071,41.709,115.046,160.712,-13.143,-66.286,-31.001,-14.278,-109.135,-10.934
65113,-63,462,7793,-32.143,418.786,8016.086,41.119,68.708,160.692,-14.000,-105.000,0.146,-5.897,-463.378,-0.199
65213,-66,410,8099,-33.829,417.529,8021.271,40.040,68.049,157.393,-16.857,-12.571,51.855,-10.795,-6.590,-32.990
65313,-102,447,7899,-34.629,420.329,8017.628,40.827,65.108,157.230,-8.000,28.000,-36.431,7.869,-29.409,-1.633
65413,-86,500,8105,-35.071,425.386,8015.372,41.211,56.825,154.807,-4.429,50.571,-22.568,3.849,-82.831,-24.232
65513,-83,389,8067,-35.671,427.471,8016.286,41.597,52.616,154.920,-6.000,20.857,9.141,3.859,-42.091,1.132
65613,-47,439,7980,-36.714,425.914,8017.929,40.948,50.600,153.913,-10.429,-15.572,16.431,-6.492,-20.157,-10.066
65713,-73,477,8186,-37.814,425.800,8022.000,40.874,50.476,154.535,-11.000,-1.143,40.713,-0.743,-1.247,6.214
65813,-60,396,7989,-38.129,425.643,8021.986,40.958,50.551,154.538,-3.143,-1.571,-0.142,0.847,0.754,0.030
65913,15,448,7921,-37.357,426.800,8015.886,41.441,50.121,149.907,7.714,11.571,-61.001,4.820,-4.304,-46.310
66013,-100,451,8203,-38.743,426.671,8021.771,41.888,50.047,149.047,-13.857,-1.286,58.857,4.473,-0.738,-8.595
66113,-35,367,8093,-38.229,423.943,8020.800,41.709,47.976,148.356,5.143,-27.285,-9.717,-1.786,-20.706,-6.906
66213,-2,441,7953,-37.414,424.229,8018.771,41.852,48.017,148.299,8.143,2.857,-20.283,1.427,0.412,-0.576
66313,-38,441,8230,-38.743,427.171,8023.114,40.346,42.302,149.960,-13.286,29.428,43.428,-15.057,-57.150,16.616
66413,50,382,8064,-37.929,426.186,8022.743,41.536,42.539,149.826,8.143,-9.857,-3.716,11.901,2.365,-1.340
66513,-50,439,7942,-38.743,425.186,8024.086,41.205,41.387,148.671,-8.143,-10.000,13.433,-3.314,-11.513,-11.554
66613,-60,388,8257,-38.743,424.657,8023.514,41.205,41.622,147.695,0.000,-5.286,-5.718,0.000,2.346,-9.764
66713,12,396,8061,-38.300,425.743,8022.714,41.580,39.831,147.337,4.429,10.857,-7.998,3.747,-17.915,-3.573
66813,-35,434,7912,-38.929,425.543,8021.271,41.191,39.753,147.919,-6.286,-2.000,-14.429,-3.890,-0.772,5.815
66913,-1,395,8238,-38.943,424.257,8025.886,41.177,39.262,149.561,-0.143,-12.857,46.143,-0.133,-4.914,16.418
67013,-17,409,7943,-38.929,424.171,8028.814,41.185,39.289,145.856,0.143,-0.857,29.287,0.074,0.267,-37.046
67113,-11,439,7889,-38.857,425.271,8024.086,41.229,38.605,144.944,0.714,11.000,-47.285,0.440,-6.841,-9.122
67213,-52,400,8211,-38.357,425.100,8027.757,40.852,38.690,146.370,5.000,-1.714,36.714,-3.764,0.851,14.261
67313,-31,379,7981,-37.329,422.900,8027.743,40.112,36.825,146.374,10.286,-22.000,-0.146,-7.408,-18.645,0.045
67413,-28,460,7831,-37.614,423.986,8025.372,39.973,36.783,148.187,-2.857,10.857,-23.711,-1.389,-0.426,18.123
67513,-43,454,8000,-37.543,424.457,8028.157,39.958,36.952,145.832,0.714,4.714,27.856,-0.142,1.698,-23.547
67613,45,394,7801,-36.443,423.929,8021.471,41.138,37.119,145.364,11.000,-5.286,-66.860,11.799,1.669,-4.677
67713,-93,469,7983,-36.614,424.271,8022.471,41.348,37.422,144.854,-1.714,3.429,10.000,2.098,3.027,-5.098
67813,-65,415,8071,-35.757,423.129,8023.943,40.110,36.453,144.817,8.571,-11.429,14.717,-12.377,-9.684,-0.377
67913,-15,413,7850,-34.686,423.586,8021.914,39.646,36.121,146.238,10.714,4.572,-20.288,-4.642,-3.320,14.208
68013,-67,491,7943,-35.243,424.186,8022.372,39.822,36.879,145.940,-5.571,6.000,4.575,1.758,7.580,-2.977
68113,-44,372,8052,-35.329,423.186,8019.757,39.834,37.329,143.730,-0.857,-10.000,-26.143,0.123,4.497,-22.100
68213,-54,429,7884,-34.686,423.243,8017.086,39.159,37.335,144.489,6.429,0.572,-26.714,-6.754,0.058,7.586
68313,-68,499,7978,-35.714,424.571,8016.714,39.075,38.339,144.555,-10.286,13.286,-3.716,-0.841,10.040,0.666
68413,-121,413,8103,-37.300,425.271,8015.186,40.234,37.668,143.061,-15.857,7.000,-15.288,11.594,-6.709,-14.939
68513,-69,412,7966,-39.014,425.471,8015.000,38.972,37.560,143.116,-17.143,2.000,-1.855,-12.621,-1.083,0.553
68613,-119,478,8154,-40.457,426.314,8015.614,40.023,38.064,143.619,-14.429,8.429,6.143,10.508,5.039,5.021
68713,-107,425,7986,-41.957,427.600,8014.457,40.518,36.443,143.526,-15.000,12.857,-11.572,4.951,-16.206,-0.924
68813,-16,454,7949,-42.043,428.000,8016.729,40.456,36.577,141.195,-0.857,4.000,22.715,-0.614,1.337,-23.310
68913,-181,489,8117,-44.543,428.757,8015.614,43.448,37.276,140.087,-25.000,7.571,-11.143,29.919,6.996,-11.078
69013,-94,403,8067,-45.971,428.700,8018.686,43.407,37.313,138.818,-14.286,-0.571,30.713,-0.414,0.364,-12.697
69113,-19,433,7988,-44.771,428.186,8019.171,42.973,37.000,138.650,12.000,-5.143,4.858,-4.342,-3.122,-1.678
69213,-82,479,8095,-45.257,429.486,8019.443,43.198,37.164,138.779,-4.857,13.000,2.715,2.253,1.635,1.295
69313,-7,391,8172,-44.800,428.614,8025.471,43.431,37.341,136.083,4.571,-8.714,60.283,2.325,1.766,-26.959
69413,-65,418,7978,-45.486,427.714,8022.429,43.365,36.823,134.723,-6.857,-9.000,-30.425,-0.655,-5.178,-13.607
69513,-34,481,7997,-46.000,429.471,8023.543,43.011,36.386,134.184,-5.143,17.571,11.143,-3.542,-4.365,-5.386
69613,-27,410,8221,-44.943,428.900,8029.986,42.553,36.374,132.675,10.571,-5.714,64.429,-4.578,-0.128,-15.096
69713,-2,374,8017,-44.100,427.671,8026.800,42.810,36.753,130.249,8.429,-12.286,-31.860,2.571,3.792,-24.259
69813,-26,456,8194,-43.357,428.257,8029.943,42.666,36.873,131.584,7.429,5.857,31.431,-1.438,1.199,13.355
69913,-39,407,8114,-42.743,427.186,8032.686,42.415,36.382,131.306,6.143,-10.714,27.427,-2.520,-4.908,-2.778
70013,67,405,7983,-40.743,426.829,8028.757,44.204,36.475,128.592,20.000,-3.571,-39.282,17.891,0.932,-27.142
70113,-69,441,8081,-39.743,426.557,8030.457,42.737,36.297,128.485,10.000,-2.715,16.997,-14.667,-1.776,-1.072
70213,-61,371,8205,-39.657,424.857,8031.457,42.688,36.072,129.563,0.857,-17.000,10.000,-0.488,-2.252,10.777
70313,9,407,8009,-38.986,425.114,8030.286,43.077,35.879,129.389,6.714,2.571,-11.714,3.886,-1.929,-1.730
70413,-65,449,8007,-39.671,425.700,8030.500,43.103,35.930,129.338,-6.857,5.857,2.144,0.266,0.505,-0.512
70513,-9,389,8196,-39.829,425.100,8029.872,42.971,36.186,128.422,-1.571,-6.000,-6.284,-1.324,2.563,-9.160
70613,-10,402,7949,-39.729,425.343,8027.943,43.032,35.973,128.608,1.000,2.429,-19.287,0.611,-2.135,1.862
70713,-11,445,7958,-40.100,425.443,8028.400,42.669,36.017,128.302,-3.714,1.000,4.570,-3.633,0.447,-3.067
70813,-18,400,8197,-39.871,425.557,8027.757,42.744,35.924,127.339,2.286,1.143,-6.426,0.748,-0.937,-9.627
70913,-22,357,7891,-40.000,425.600,8024.457,42.676,35.840,127.846,-1.286,0.429,-33.003,-0.675,-0.837,5.071
71013,-57,461,8017,-40.514,425.914,8026.443,42.661,36.052,126.630,-5.143,3.143,19.858,-0.152,2.120,-12.165
71113,-22,420,8074,-40.614,426.129,8025.386,42.609,35.971,125.917,-1.000,2.143,-10.571,-0.518,-0.805,-7.123
71213,62,375,7874,-40.171,425.800,8025.986,43.503,36.330,125.092,4.429,-3.286,6.001,8.937,3.587,-8.256
71313,-60,444,7897,-40.057,425.757,8023.443,43.440,36.307,125.876,1.143,-0.428,-25.430,-0.628,-0.233,7.845
71413,-62,397,8152,-40.257,425.986,8025.057,43.509,36.074,126.787,-2.000,2.286,16.143,0.683,-2.329,9.105
71513,18,395,7933,-40.000,425.114,8028.114,43.798,36.075,121.854,2.571,-8.714,30.571,2.894,0.012,-49.326
71613,-35,459,7775,-40.457,424.986,8022.471,43.576,35.938,124.275,-4.571,-1.286,-56.431,-2.221,-1.373,24.207
71713,-34,421,8181,-41.314,425.829,8025.886,42.844,35.134,125.296,-8.571,8.429,34.146,-7.317,-8.042,10.212
71813,-4,399,7914,-40.614,424.871,8028.571,43.047,34.938,120.772,7.000,-9.572,26.855,2.032,-1.953,-45.236
71913,7,467,7730,-39.729,425.014,8021.657,43.379,35.089,123.776,8.857,1.429,-69.141,3.315,1.512,30.035
72013,-132,460,8140,-41.186,425.886,8024.143,44.720,35.190,124.379,-14.571,8.714,24.858,13.411,1.004,6.030
72113,-35,385,7966,-40.786,424.786,8026.614,44.648,35.247,121.446,4.000,-11.000,24.712,-0.717,0.573,-29.332
72213,-89,467,7778,-41.114,425.600,8022.029,44.916,35.553,124.644,-3.286,8.143,-45.854,2.682,3.061,31.984
72313,-118,487,8189,-41.343,426.171,8026.171,45.265,36.208,125.304,-2.286,5.714,41.426,3.486,6.548,6.597
72413,35,368,7886,-39.614,424.286,8023.043,45.833,35.748,126.029,17.286,-18.857,-31.284,5.684,-4.597,7.246
72513,-112,445,7766,-40.029,425.086,8018.743,46.352,35.576,129.541,-4.143,8.000,-43.003,5.184,-1.724,35.128
72613,-157,504,8136,-41.600,426.014,8020.971,48.382,36.756,130.196,-15.714,9.286,22.285,20.299,11.798,6.545
72713,-88,399,8032,-41.814,424.900,8018.771,48.553,36.374,128.681,-2.143,-11.143,-21.997,1.715,-3.822,-15.149
72813,-63,425,7825,-41.857,425.314,8016.429,48.570,36.207,130.679,-0.429,4.143,-23.428,0.173,-1.668,19.981
72913,-144,480,8092,-44.129,425.771,8018.872,49.566,36.689,130.471,-22.714,4.571,24.429,9.956,4.823,-2.086
73013,-124,437,8034,-44.471,425.571,8016.457,50.032,36.589,128.591,-3.429,-2.000,-24.146,4.661,-1.001,-18.795
73113,-1,428,7962,-43.986,426.443,8014.586,50.286,35.904,128.417,4.857,8.714,-18.711,2.540,-6.854,-1.745
73213,-178,470,7993,-46.500,426.857,8015.157,52.476,36.235,128.230,-25.143,4.143,5.713,21.901,3.314,-1.864
73313,-104,396,8082,-47.443,426.214,8013.043,52.906,36.377,125.869,-9.429,-6.429,-21.143,4.300,1.423,-23.614
73413,-24,416,7996,-48.500,426.700,8012.071,51.674,36.009,125.734,-10.571,4.857,-9.717,-12.327,-3.685,-1.347
73513,-103,491,8047,-49.257,427.443,8013.571,52.077,36.783,125.515,-7.571,7.429,15.000,4.031,7.741,-2.187
73613,-49,410,8208,-49.100,427.757,8012.872,52.061,36.538,124.286,1.571,3.143,-6.997,-0.161,-2.452,-12.289
73713,-78,419,8017,-50.386,428.086,8012.243,51.646,36.354,124.153,-12.857,3.286,-6.289,-4.151,-1.841,-1.338
73813,-59,529,7864,-50.729,429.443,8011.557,51.622,38.272,124.835,-3.429,13.571,-6.855,-0.236,19.181,6.824
73913,-89,436,8254,-51.986,430.029,8011.786,51.467,38.053,125.263,-12.571,5.857,2.285,-1.551,-2.185,4.283
74013,-2,330,8124,-51.771,428.900,8014.372,51.643,39.792,125.684,2.143,-11.286,25.859,1.761,17.387,4.208
74113,0,456,7946,-51.614,429.143,8015.186,51.783,39.905,125.052,1.571,2.429,8.140,1.404,1.126,-6.318
74213,-76,483,8230,-51.957,430.329,8015.457,51.864,40.253,125.497,-3.429,11.857,2.715,0.808,3.480,4.445
74313,-10,392,8039,-51.657,430.514,8016.286,52.045,40.045,125.458,3.000,1.857,8.286,1.808,-2.078,-0.387
74413,-51,442,7944,-51.986,430.257,8017.900,51.967,39.912,123.779,-3.286,-2.571,16.143,-0.779,-1.326,-16.787
74513,-111,480,8191,-52.957,430.629,8020.628,52.424,40.251,125.449,-9.714,3.714,27.285,4.565,3.388,16.693
74613,20,406,8185,-53.314,430.800,8026.114,51.837,40.120,124.113,-3.571,1.714,54.858,-5.867,-1.310,-13.352
74713,-15,376,8048,-52.200,429.471,8027.043,51.810,40.372,124.031,11.143,-13.286,9.287,-0.267,2.521,-0.829
74813,-112,483,8159,-52.871,430.443,8028.300,52.274,40.828,124.913,-6.714,9.714,12.568,4.640,4.556,8.820
74913,-81,444,8189,-53.814,430.886,8033.143,52.178,40.804,124.477,-9.429,4.428,48.433,-0.965,-0.235,-4.358
75013,84,392,8020,-51.657,429.471,8034.243,54.651,40.410,124.015,21.571,-14.143,10.996,24.730,-3.943,-4.621
75113,-60,440,8006,-51.886,430.443,8033.586,54.652,39.830,124.041,-2.286,9.714,-6.567,0.009,-5.801,0.260
75213,-70,429,8333,-52.114,430.443,8040.000,54.694,39.830,127.695,-2.286,0.000,64.141,0.418,0.000,36.542
75313,63,382,8115,-50.243,428.771,8041.957,56.335,39.370,127.780,18.714,-16.714,19.570,16.410,-4.598,0.846
75413,-35,424,7910,-49.014,428.929,8039.200,55.712,39.329,128.513,12.286,1.571,-27.568,-6.222,-0.413,7.332
75513,-73,416,8268,-49.071,428.986,8043.514,55.735,39.307,131.028,-0.571,0.572,43.140,0.225,-0.217,25.148
75613,-5,378,8074,-47.443,427.557,8042.372,55.332,39.317,130.406,16.286,-14.286,-11.426,-4.030,0.099,-6.212
75713,66,432,7914,-44.971,427.657,8041.343,56.468,39.319,131.129,24.714,1.000,-10.288,11.365,0.023,7.225
75813,-49,431,8163,-45.443,427.329,8044.400,56.362,39.194,131.435,-4.714,-3.286,30.571,-1.062,-1.256,3.057
75913,-15,328,8092,-43.071,425.029,8044.043,54.054,40.218,131.271,23.714,-23.000,-3.569,-23.085,10.241,-1.639
76013,16,413,7897,-41.500,425.171,8041.614,54.149,40.157,132.391,15.714,1.429,-24.287,0.954,-0.608,11.206
76113,-108,480,8078,-42.771,425.843,8042.900,54.649,40.672,132.301,-12.714,6.714,12.856,4.993,5.149,-0.899
76213,16,365,8109,-41.371,424.214,8043.100,54.880,40.793,132.390,14.000,-16.286,2.002,2.319,1.211,0.892
76313,9,384,7947,-41.143,424.114,8039.886,55.056,40.883,131.953,2.286,-1.000,-32.144,1.757,0.898,-4.379
76413,5,422,7944,-40.143,424.171,8039.400,55.249,40.877,132.242,10.000,0.571,-4.858,1.930,-0.058,2.892
76513,-33,393,8198,-40.129,422.914,8042.271,55.251,40.461,133.466,0.143,-12.571,28.716,0.017,-4.160,12.247
76613,-3,340,8047,-39.786,421.914,8039.786,55.405,41.616,131.723,3.429,-10.000,-24.858,1.547,11.554,-17.429
76713,-2,445,7804,-39.786,422.929,8036.743,55.405,41.300,134.643,0.000,10.143,-30.430,0.000,-3.161,29.191
76813,-36,474,8168,-39.929,423.186,8036.372,55.383,41.560,134.243,-1.429,2.571,-3.711,-0.228,2.603,-3.991
76913,103,333,7966,-37.900,422.129,8034.257,57.922,42.879,134.170,20.286,-10.571,-21.143,25.392,13.185,-0.738
77013,31,411,7751,-38.414,422.214,8030.943,57.143,42.851,138.200,-5.143,0.857,-33.145,-7.791,-0.283,40.302
77113,-64,441,8118,-38.343,422.214,8031.471,57.108,42.851,138.461,0.714,0.000,5.283,-0.352,0.000,2.610
77213,75,350,8016,-36.400,421.914,8028.771,58.598,43.279,136.884,19.429,-3.000,-26.997,14.901,4.289,-15.764
77313,46,401,7739,-35.871,421.829,8024.914,59.169,43.315,141.126,5.286,-0.857,-38.574,5.712,0.354,42.411
77413,-22,448,8098,-35.257,421.814,8026.214,59.087,43.306,141.373,6.143,-0.143,13.003,-0.824,-0.088,2.479
77513,18,408,7986,-34.871,422.086,8023.214,59.344,43.159,139.960,3.857,2.714,-30.000,2.577,-1.472,-14.137
77613,111,368,7842,-33.143,421.600,8021.686,61.757,43.571,141.339,17.286,-4.857,-15.288,24.125,4.127,13.797
77713,-59,453,7850,-33.829,421.714,8020.143,61.774,43.643,142.610,-6.857,1.143,-15.425,0.168,0.717,12.705
77813,-94,431,8140,-34.914,422.157,8019.329,62.153,43.578,141.758,-10.857,4.428,-8.145,3.790,-0.653,-8.520
77913,34,377,7951,-34.114,422.443,8020.186,62.672,43.214,141.160,8.000,2.857,8.569,5.193,-3.641,-5.984
78013,-1,435,7748,-33.314,422.071,8016.343,62.732,42.992,144.808,8.000,-3.714,-38.428,0.601,-2.218,36.488
78113,-68,451,8230,-33.971,422.514,8018.571,62.851,43.128,146.864,-6.571,4.428,22.285,1.189,1.358,20.560
78213,44,381,7900,-34.229,422.600,8018.943,62.493,43.039,146.531,-2.571,0.857,3.716,-3.574,-0.886,-3.336
78313,81,435,7766,-32.214,422.471,8017.071,63.887,42.988,148.894,20.143,-1.286,-18.716,13.937,-0.507,23.629
78413,-134,480,7951,-33.243,423.657,8014.200,64.930,43.412,148.200,-10.286,11.857,-28.711,10.424,4.237,-6.933
78513,-117,418,8102,-35.171,423.986,8016.614,65.382,43.281,148.235,-19.286,3.286,24.141,4.527,-1.313,0.341
78613,0,390,7912,-34.671,423.000,8018.571,65.515,43.258,145.918,5.000,-9.857,19.570,1.331,-0.229,-23.166
78713,-74,509,7977,-35.243,424.257,8015.657,65.681,44.444,144.677,-5.714,12.571,-29.141,1.659,11.861,-12.413
78813,-52,397,8076,-35.929,424.229,8017.971,65.602,44.461,144.327,-6.857,-0.286,23.140,-0.792,0.169,-3.494
78913,-71,383,7947,-37.043,423.029,8021.071,65.526,44.424,140.385,-11.143,-12.000,31.001,-0.762,-0.370,-39.420
79013,-58,498,7829,-35.986,423.571,8016.628,64.575,45.099,141.468,10.571,5.429,-44.429,-9.505,6.755,10.829
79113,-156,472,8118,-37.714,424.814,8018.800,66.127,45.218,141.841,-17.286,12.429,21.714,15.513,1.185,3.723
79213,-104,371,7935,-37.929,423.443,8021.043,66.316,45.373,139.232,-2.143,-13.714,22.432,1.899,1.553,-26.081
79313,-89,461,7812,-37.514,423.071,8015.657,65.904,44.956,139.921,4.143,-3.714,-53.857,-4.122,-4.173,6.888
79413,-159,513,8045,-40.286,425.143,8017.929,66.869,45.705,139.086,-27.714,20.714,22.715,9.643,7.491,-8.352
79513,-69,391,7928,-39.671,424.371,8020.243,66.403,45.819,136.193,6.143,-7.714,23.140,-4.657,1.139,-28.935
79613,-108,410,7949,-38.971,423.029,8017.571,65.413,44.832,135.729,7.000,-13.429,-26.714,-9.896,-9.866,-4.636
79713,-113,503,7945,-39.329,424.514,8016.329,65.747,45.726,135.989,-3.571,14.857,-12.427,3.341,8.934,2.603
79813,-147,445,8130,-40.529,424.800,8020.686,66.924,45.790,134.669,-12.000,2.857,43.569,11.771,0.646,-13.203
79913,-71,353,7977,-39.486,422.986,8019.043,65.864,46.082,134.490,10.429,-18.143,-16.426,-10.601,2.920,-1.786
80013,-42,462,7935,-38.314,423.343,8017.628,65.075,46.286,134.846,11.714,3.571,-14.146,-7.891,2.037,3.553
80113,-183,520,8187,-40.914,424.657,8020.843,67.136,47.684,136.157,-26.000,13.143,32.144,20.604,13.986,13.109
80213,-65,369,7893,-39.300,423.214,8019.414,65.149,47.818,136.963,16.143,-14.428,-14.287,-19.865,1.340,8.068
80313,-126,462,7945,-39.614,424.157,8017.457,65.513,47.923,137.034,-3.143,9.428,-19.570,3.634,1.047,0.705
80413,-155,531,7963,-41.486,425.800,8016.986,66.896,49.559,137.164,-18.714,16.429,-4.712,13.837,16.355,1.297
80513,-147,428,8174,-42.114,424.900,8018.800,67.673,48.934,138.383,-6.286,-9.000,18.140,7.773,-6.241,12.195
80613,-14,377,8010,-41.614,424.429,8015.971,67.750,49.234,136.498,5.000,-4.714,-28.286,0.765,2.993,-18.855
80713,-79,484,7956,-41.629,425.357,8015.100,67.758,49.733,136.683,-0.143,9.286,-8.711,0.078,4.993,1.852
80813,-175,501,8242,-43.286,424.957,8020.500,69.557,49.005,138.067,-16.571,-4.000,53.999,17.992,-7.279,13.837
80913,23,387,7945,-41.686,424.257,8016.086,69.775,49.192,135.445,16.000,-7.000,-44.141,2.178,1.869,-26.212
81013,-167,477,7862,-44.043,426.357,8012.343,71.168,48.252,136.030,-23.571,21.000,-37.432,13.927,-9.399,5.850
81113,-194,522,8182,-46.814,427.300,8015.714,73.148,49.452,137.263,-27.714,9.428,33.716,19.807,11.999,12.329
81213,3,392,8144,-45.686,426.000,8014.486,73.299,49.166,135.716,11.286,-13.000,-12.285,1.503,-2.861,-15.473
81313,5,399,8020,-45.471,426.100,8014.214,73.424,49.104,135.686,2.143,1.000,-2.715,1.258,-0.622,-0.303
81413,-86,523,8052,-45.971,427.257,8015.757,73.579,50.402,135.492,-5.000,11.571,15.430,1.550,12.983,-1.933
81513,-120,459,8246,-46.100,426.957,8016.543,73.701,50.149,136.661,-1.286,-3.000,7.856,1.213,-2.530,11.684
81613,34,407,7991,-45.900,426.971,8013.771,73.898,50.143,135.175,2.000,0.143,-27.715,1.978,-0.058,-14.853
81713,-105,461,7905,-47.186,428.186,8011.729,74.132,49.923,135.722,-12.857,12.143,-20.430,2.338,-2.203,5.467
81813,-127,509,8171,-47.400,428.557,8011.900,74.341,50.424,135.916,-2.143,3.714,1.714,2.084,5.006,1.934
81913,8,389,8141,-46.129,427.771,8011.214,74.516,50.605,135.139,12.714,-7.857,-6.855,1.754,1.814,-7.764
82013,9,422,8039,-47.200,428.200,8011.486,73.164,50.427,135.176,-10.714,4.286,2.715,-13.518,-1.780,0.364
82113,-108,509,8064,-47.886,429.186,8012.314,73.505,51.315,135.317,-6.857,9.857,8.286,3.409,8.876,1.415
82213,-92,469,8199,-48.200,429.757,8010.400,73.646,51.532,131.666,-3.143,5.714,-19.146,1.408,2.170,-36.516
82313,60,410,7992,-48.243,430.157,8008.643,73.582,51.267,131.077,-0.429,4.000,-17.568,-0.639,-2.643,-5.882
82413,-135,478,7902,-49.671,430.929,8008.529,74.278,51.574,131.167,-14.286,7.714,-1.143,6.965,3.069,0.894
82513,-148,486,8281,-50.743,431.929,8008.714,75.143,51.952,131.543,-10.714,10.000,1.855,8.647,3.781,3.759
82613,89,369,8178,-49.400,431.800,8010.200,76.771,52.097,132.852,13.429,-1.286,14.858,16.277,1.442,13.098
82713,-25,451,7945,-50.700,432.071,8010.643,75.567,52.146,132.582,-13.000,2.715,4.429,-12.041,0.498,-2.700
82813,-112,511,8214,-51.600,433.214,8011.372,75.915,52.980,133.554,-9.000,11.429,7.285,3.487,8.340,9.718
82913,-48,419,8092,-52.071,434.514,8011.372,75.789,51.478,133.554,-4.714,13.000,0.000,-1.264,-15.025,0.000
83013,72,420,8015,-51.271,434.614,8013.057,76.792,51.443,132.843,8.000,1.000,16.855,10.032,-0.351,-7.114
83113,-126,495,7972,-51.529,434.829,8011.543,77.012,51.662,132.698,-2.571,2.143,-15.142,2.194,2.194,-1.448
83213,-95,419,8294,-53.114,435.600,8014.186,76.747,51.013,136.403,-15.857,7.714,26.426,-2.645,-6.494,37.052
83313,85,377,8150,-52.029,435.500,8017.086,78.143,51.121,137.100,10.857,-1.000,29.004,13.959,1.078,6.969
83413,-19,443,7945,-52.371,435.800,8017.100,77.945,51.102,137.092,-3.429,3.000,0.142,-1.986,-0.185,-0.076
83513,-138,527,8228,-53.871,437.714,8017.529,78.565,51.965,137.703,-15.000,19.143,4.287,6.206,8.634,6.104
83613,-87,435,8104,-55.071,439.071,8018.343,78.420,50.619,138.043,-12.000,13.571,8.140,-1.448,-13.466,3.400
83713,95,402,8005,-53.686,438.457,8021.214,80.183,50.804,135.624,13.857,-6.143,28.716,17.627,1.849,-24.191
83813,-135,488,7980,-55.100,438.657,8018.529,80.730,50.971,134.548,-14.143,2.000,-26.855,5.468,1.668,-10.762
83913,-80,418,8318,-57.714,439.871,8023.557,78.500,49.428,138.995,-26.143,12.143,50.283,-22.298,-15.424,44.472
84013,88,380,8159,-56.900,439.429,8029.386,79.703,49.822,135.965,8.143,-4.429,58.286,12.024,3.940,-30.301
84113,-47,449,7962,-56.657,439.543,8027.157,79.706,49.835,135.772,2.429,1.143,-22.285,0.039,0.126,-1.924
84213,-105,440,8251,-59.229,440.829,8030.514,78.309,48.655,138.336,-25.714,12.857,33.569,-13.976,-11.797,25.637
84313,-21,387,8117,-60.186,440.629,8035.914,77.421,48.847,134.166,-9.571,-2.000,53.999,-8.876,1.917,-41.699
84413,37,458,7945,-59.343,440.771,8033.729,78.150,48.883,134.383,8.429,1.429,-21.855,7.288,0.360,2.169
84513,-120,480,8146,-61.314,441.800,8036.014,77.914,48.940,134.911,-19.714,10.286,22.856,-2.357,0.571,5.284
84613,-17,336,8208,-63.143,441.343,8041.243,75.307,49.769,134.382,-18.286,-4.571,52.285,-26.071,8.296,-5.292
84713,26,405,8031,-61.929,440.657,8043.829,76.046,49.935,132.404,12.143,-6.857,25.859,7.387,1.651,-19.779
84813,-108,490,7981,-62.129,441.500,8041.557,76.148,50.261,132.098,-2.000,8.429,-22.715,1.024,3.267,-3.058
84913,-64,418,8280,-63.529,442.086,8046.257,75.264,49.742,134.622,-14.000,5.857,47.002,-8.845,-5.188,25.231
85013,22,364,8094,-63.200,441.071,8051.200,75.586,50.593,129.847,3.286,-10.143,49.429,3.218,8.507,-47.744
85113,90,411,7913,-60.943,440.500,8046.671,77.737,50.704,129.058,22.571,-5.714,-45.288,21.514,1.104,-7.894
85213,-103,531,8103,-63.043,442.643,8049.571,76.854,51.310,128.006,-21.000,21.429,28.999,-8.828,6.062,-10.519
85313,58,346,8200,-63.371,441.371,8055.771,76.285,52.571,124.586,-3.286,-12.714,62.002,-5.695,12.608,-34.202
85413,100,355,8076,-60.029,439.586,8057.557,78.219,53.345,123.965,33.429,-17.857,17.856,19.343,7.748,-6.202
85513,-92,504,7906,-59.671,440.814,8054.757,78.015,53.822,125.138,3.571,12.286,-27.998,-2.041,4.769,11.725
85613,-138,471,8121,-61.643,441.971,8057.743,78.226,53.588,124.186,-19.714,11.571,29.854,2.105,-2.347,-9.520
85713,95,294,8114,-59.229,438.900,8059.700,80.385,55.775,123.977,24.143,-30.714,19.575,21.595,21.870,-2.085
85813,199,371,7961,-55.643,438.529,8058.057,86.028,56.138,124.511,35.857,-3.714,-16.431,56.426,3.632,5.339
85913,-54,523,8167,-55.400,440.529,8061.200,86.008,56.616,124.445,2.429,20.000,31.431,-0.197,4.779,-0.664
86013,-73,202,8329,-55.614,436.300,8068.343,86.033,62.873,125.259,-2.143,-42.286,71.426,0.249,62.577,8.140
86113,-10,543,8051,-53.529,437.314,8067.386,85.341,64.004,125.132,20.857,10.143,-9.570,-6.920,11.303,-1.272
86213,5,517,7912,-51.971,439.400,8067.057,85.400,64.187,125.509,15.571,20.857,-3.286,0.593,1.836,3.768
86313,-8,428,8313,-50.814,438.929,8074.214,85.439,64.148,125.044,11.571,-4.714,71.572,0.392,-0.392,-4.648
86413,22,305,8169,-48.229,435.957,8075.986,84.863,65.452,125.495,25.857,-29.714,17.715,-5.763,13.043,4.511
86513,111,336,7936,-45.657,435.171,8076.100,86.897,66.312,125.364,25.714,-7.857,1.143,20.343,8.594,-1.312
86613,-78,422,8097,-45.229,435.343,8078.214,86.662,66.262,124.447,4.286,1.714,21.143,-2.349,-0.498,-9.167
86713,-93,388,8198,-44.943,433.700,8081.829,86.471,65.989,124.199,2.857,-16.429,36.143,-1.911,-2.728,-2.477
86813,-3,408,8024,-42.886,433.171,8080.314,85.729,66.045,124.249,20.571,-5.286,-15.142,-7.427,0.555,0.496
86913,-4,429,8081,-41.929,434.257,8081.800,85.783,65.339,123.625,9.571,10.857,14.854,0.548,-7.060,-6.240
87013,20,380,8111,-41.043,433.086,8084.314,86.098,65.566,122.397,8.857,-11.714,25.146,3.142,2.268,-12.276
87113,-2,403,7932,-38.457,431.414,8080.671,84.498,64.816,123.080,25.857,-16.714,-36.431,-15.991,-7.499,6.824
87213,3,456,7903,-37.486,432.657,8080.814,84.579,64.440,122.867,9.714,12.429,1.431,0.801,-3.757,-2.123
87313,-4,411,8202,-35.743,431.929,8084.486,83.992,64.392,122.594,17.429,-7.286,36.714,-5.870,-0.476,-2.737
87413,3,325,8020,-33.486,428.986,8085.300,82.872,64.505,121.972,22.571,-29.428,8.140,-11.196,1.122,-6.219
87513,24,424,7821,-31.043,428.929,8080.257,82.006,64.507,125.448,24.429,-0.572,-50.425,-8.663,0.026,34.762
87613,-34,503,8104,-31.329,430.729,8081.600,81.981,64.790,125.192,-2.857,18.000,13.428,-0.250,2.832,-2.564
87713,64,337,8013,-29.286,428.629,8082.414,82.547,65.409,124.556,20.429,-21.000,8.140,5.664,6.187,-6.358
87813,18,400,7878,-26.529,427.186,8077.214,80.839,64.909,125.380,27.571,-14.429,-51.997,-17.075,-5.003,8.245
87913,4,452,7924,-26.800,428.114,8076.914,80.704,64.792,125.721,-2.714,9.286,-3.003,-1.350,-1.167,3.407
88013,-17,386,8188,-24.657,426.814,8081.571,78.925,64.711,123.695,21.429,-13.000,46.572,-17.792,-0.810,-20.257
88113,16,352,7935,-21.657,424.386,8078.043,76.382,64.282,124.302,30.000,-24.286,-35.283,-25.437,-4.293,6.063
88213,76,439,8158,-20.614,425.057,8078.243,77.205,64.185,124.419,10.429,6.714,1.997,8.234,-0.964,1.172
88313,-118,493,7773,-22.371,426.400,8074.714,77.998,64.608,129.422,-17.571,13.429,-35.283,7.927,4.227,50.037
88413,-33,451,7819,-21.614,425.371,8071.386,77.633,63.628,132.913,7.571,-10.286,-33.286,-3.649,-9.804,34.905
88513,-6,403,7869,-19.986,424.571,8066.000,76.742,63.552,133.366,16.286,-8.000,-53.857,-8.904,-0.758,4.528
88613,-142,453,7984,-22.500,425.229,8065.900,77.808,63.605,133.424,-25.143,6.571,-1.001,10.658,0.527,0.588
88713,-80,503,8026,-22.143,425.829,8067.628,77.485,64.135,132.106,3.571,6.000,17.285,-3.228,5.305,-13.185
88813,-14,407,8232,-20.529,424.371,8068.500,76.454,63.383,132.983,16.143,-14.572,8.716,-10.311,-7.519,8.773
88913,95,495,8160,-19.286,425.886,8068.771,77.606,63.785,133.150,12.429,15.143,2.715,11.521,4.018,1.670
89013,13,473,7709,-19.229,426.614,8064.057,77.629,64.027,139.797,0.571,7.286,-47.144,0.223,2.423,66.467
89113,-124,614,8295,-19.457,428.114,8067.357,77.913,67.096,142.458,-2.286,15.000,32.998,2.841,30.689,26.608
89213,24,558,7452,-17.800,429.386,8056.686,77.585,68.683,159.193,16.571,12.714,-106.714,-3.276,15.872,167.348
89313,5,890,8608,-18.586,436.243,8065.486,77.070,87.727,171.893,-7.857,68.571,88.003,-5.151,190.432,127.003
89413,111,1126,8312,-15.071,445.500,8071.343,77.290,119.925,173.203,35.143,92.571,58.569,2.199,321.983,13.098
89513,-12,720,7488,-13.129,448.843,8060.014,75.615,124.193,184.673,19.429,33.429,-113.286,-16.747,42.677,114.704
89613,-36,1080,8778,-14.914,459.000,8068.586,74.652,144.639,202.968,-17.857,101.571,85.718,-9.631,204.463,182.952
89713,289,946,7548,-10.429,466.071,8062.914,82.891,155.749,211.701,44.857,70.714,-56.719,82.385,111.097,87.328
89813,-48,1188,8196,-9.514,475.743,8062.657,82.115,177.710,211.528,9.143,96.714,-2.568,-7.760,219.610,-1.728
89913,25,755,7745,-8.471,480.543,8057.700,82.083,180.626,214.823,10.429,48.000,-49.570,-0.319,29.163,32.946
90013,-225,433,8146,-12.714,480.729,8059.571,85.422,180.570,215.013,-42.429,1.857,18.711,33.388,-0.557,1.904
90113,12,341,8072,-10.743,478.529,8061.000,84.370,181.320,214.759,19.714,-22.000,14.287,-10.513,7.493,-2.545
90213,-15,396,8485,-9.600,478.200,8063.729,83.761,181.448,218.876,11.429,-3.286,27.285,-6.094,1.284,41.169
90313,-78,353,7405,-11.929,477.857,8053.086,83.363,181.661,232.133,-23.286,-3.429,-106.426,-3.975,2.135,132.576
90413,-220,744,8847,-14.800,482.157,8065.971,86.942,184.328,250.114,-28.714,43.000,128.853,35.790,26.668,179.811
90513,-9,1447,7459,-12.957,495.300,8054.986,85.669,216.966,259.470,18.429,131.429,-109.854,-12.731,326.379,93.553
90613,66,1315,7347,-10.771,507.871,8044.171,85.704,237.619,272.642,21.857,125.714,-108.145,0.348,206.533,131.727
90713,-29,1779,8492,-12.543,527.543,8051.128,84.776,281.066,277.720,-17.714,196.714,69.570,-9.281,434.469,50.779
90813,187,1346,7279,-7.943,539.800,8041.114,86.720,297.314,292.357,46.000,122.571,-100.142,19.443,162.472,146.372
90913,-155,1724,7963,-9.014,558.457,8036.043,88.057,328.434,290.584,-10.714,186.572,-50.713,13.367,311.200,-17.733
91013,-72,2010,8615,-11.300,581.743,8042.557,87.584,370.096,298.277,-22.857,232.857,65.142,-4.726,416.625,76.929
91113,-46,1894,8072,-11.286,602.386,8044.128,87.579,401.115,298.138,0.143,206.429,15.713,-0.057,310.193,-1.388
91213,-422,2384,6623,-15.814,630.157,8020.872,99.669,452.869,341.446,-45.286,277.714,-232.568,120.901,517.539,433.082
91313,-488,2741,8663,-22.486,663.786,8028.671,114.342,516.495,349.690,-66.714,336.285,77.998,146.733,636.260,82.437
91413,-496,2368,7370,-30.100,691.071,8020.457,127.156,553.993,358.209,-76.143,272.857,-82.144,128.140,374.980,85.186
91513,-408,1219,7384,-34.214,701.629,8009.571,134.448,556.904,365.728,-41.143,105.572,-108.857,72.924,29.108,75.189
91613,-219,1221,8350,-37.100,714.271,8011.600,136.204,558.503,367.213,-28.857,126.428,20.288,17.559,15.993,14.858
91713,-302,1299,8371,-41.786,727.043,8016.457,139.554,561.499,369.678,-46.857,127.714,48.569,33.494,29.954,24.648
91813,-216,1498,8596,-43.329,741.443,8025.243,140.868,568.121,375.985,-15.429,144.000,87.856,13.143,66.226,63.071
91913,-397,2219,8867,-48.086,767.171,8033.628,146.976,593.122,387.930,-47.571,257.286,83.857,61.081,250.006,119.447
92013,-740,1866,6588,-58.971,788.629,8012.114,168.085,605.194,424.063,-108.857,214.572,-215.142,211.087,120.722,361.333
92113,128,1614,7457,-58.429,805.814,8005.600,168.626,611.277,429.009,5.429,171.857,-65.142,5.408,60.827,49.461
92213,-665,1599,7028,-66.457,821.071,7990.243,183.297,617.524,444.219,-80.286,152.571,-153.574,146.716,62.468,152.096
92313,-359,1100,8527,-72.414,831.843,7994.914,185.913,615.717,448.103,-59.571,107.714,46.714,26.159,-18.071,38.837
92413,-419,1928,7404,-79.829,854.314,7985.314,189.209,626.513,453.429,-74.143,224.714,-95.996,32.960,107.966,53.267
92513,-253,2049,6820,-82.129,876.386,7969.800,190.318,640.834,473.991,-23.000,220.715,-155.146,11.093,143.207,205.612
92613,-427,1693,8234,-86.257,893.843,7971.414,194.573,646.175,474.695,-41.286,174.571,16.143,42.543,53.412,7.041
92713,-100,1204,7945,-89.043,906.843,7969.000,193.350,643.123,474.393,-27.857,130.000,-24.141,-12.229,-30.520,-3.016
92813,-125,1945,7128,-93.671,929.329,7957.100,190.252,651.457,484.779,-46.286,224.857,-118.999,-30.975,83.342,103.855
92913,602,1509,8638,-84.300,943.414,7963.829,207.363,653.177,490.876,93.714,140.858,67.285,171.105,17.195,60.970
93013,-9,1834,9328,-83.386,966.729,7978.100,207.552,655.419,515.204,9.143,233.143,142.715,1.888,22.423,243.286
93113,8,1530,8021,-83.129,980.829,7977.671,207.653,656.767,515.156,2.571,141.000,-4.287,1.019,13.479,-0.483
93213,-1703,2191,8179,-107.529,1004.743,7981.486,282.664,669.790,515.644,-244.000,239.143,38.145,750.109,130.234,4.878
93313,1854,2011,7601,-80.929,1027.357,7971.314,366.082,676.625,516.026,266.000,226.143,-101.714,834.172,68.342,3.826
93413,235,2073,6299,-77.886,1052.614,7944.600,367.806,682.164,552.235,30.429,252.571,-267.144,17.240,55.399,362.084
93513,1789,1264,7616,-53.914,1065.871,7940.029,428.936,677.108,553.610,239.714,132.572,-45.713,611.304,-50.569,13.750
93613,-446,1062,7279,-59.171,1075.014,7928.343,431.447,672.658,558.782,-52.571,91.428,-116.860,25.108,-44.495,51.724
93713,-125,1542,6791,-59.629,1091.500,7908.243,431.499,669.753,573.824,-4.571,164.857,-201.001,0.525,-29.047,150.419
93813,885,1247,9941,-46.943,1103.486,7935.628,445.794,664.904,622.384,126.857,119.857,273.857,142.948,-48.491,485.606
93913,3500,-719,7500,3.114,1087.086,7927.329,613.128,694.823,624.262,500.571,-164.000,-82.998,1673.340,299.188,18.772
94013,-171,687,7692,0.386,1091.471,7921.343,613.472,691.306,624.481,-27.286,43.857,-59.858,3.436,-35.170,2.190
94113,1514,608,5821,22.043,1094.400,7891.186,639.224,688.813,672.373,216.571,29.286,-301.572,257.523,-24.930,478.925
94213,2508,-23,6901,57.829,1087.557,7876.872,703.994,697.446,682.558,357.857,-68.429,-143.140,647.696,86.331,101.848
94313,821,1017,8146,69.614,1096.214,7876.071,709.742,692.740,682.209,117.857,86.571,-8.003,57.486,-47.064,-3.488
94413,-669,1982,7047,60.014,1119.886,7862.171,715.103,694.291,689.013,-96.000,236.715,-138.999,53.606,15.513,68.043
94513,2827,3150,8005,100.057,1158.829,7864.800,786.845,729.714,689.202,400.429,389.429,26.284,717.418,354.228,1.889
94613,-654,187,9681,91.200,1154.314,7887.329,791.778,734.717,721.663,-88.571,-45.143,225.288,49.332,50.034,324.607
94713,-956,-345,6688,76.629,1144.571,7868.400,801.471,749.857,735.365,-145.714,-97.429,-189.287,96.929,151.395,137.021
94813,1208,569,8902,93.629,1146.986,7883.029,812.590,747.725,745.526,170.000,24.143,146.289,111.196,-21.322,101.605
94913,-897,148,8715,80.757,1142.643,7894.329,821.001,752.615,752.027,-128.714,-43.429,112.998,84.102,48.908,65.016
95013,456,-2257,13947,87.514,1104.886,7976.600,822.114,849.667,1039.663,67.571,-377.571,822.715,11.134,970.515,2876.357
95113,-2044,1848,9158,58.086,1126.257,7994.071,860.138,849.275,1049.051,-294.286,213.715,174.712,380.240,-3.918,93.879
95213,-2754,1922,7952,17.657,1147.443,7991.128,922.587,850.363,1048.876,-404.286,211.857,-29.429,624.493,10.883,-1.750
95313,3215,2401,5233,65.271,1174.700,7954.843,997.336,859.479,1098.553,476.143,272.571,-362.856,747.492,91.161,496.775
95413,1479,1530,9957,86.871,1190.114,7985.386,1011.250,856.031,1123.783,216.000,154.143,305.430,139.139,-34.487,252.300
95513,334,624,7815,91.729,1193.271,7984.614,1011.609,853.526,1123.882,48.571,31.572,-7.715,3.588,-25.049,0.983
95613,-258,1317,7843,90.071,1205.614,7982.600,1012.085,848.967,1124.007,-16.571,123.428,-20.142,4.763,-45.593,1.256
95713,-387,1661,9094,85.686,1222.157,7997.857,1013.477,846.393,1131.715,-43.857,165.428,152.568,13.917,-25.737,77.075
95813,727,680,10103,96.271,1226.057,8024.586,1016.247,843.251,1158.702,105.857,39.000,267.290,27.696,-31.420,269.871
95913,-2230,3714,10213,63.057,1272.043,8053.914,1053.073,888.678,1187.385,-332.143,459.857,293.281,368.259,454.274,286.836
96013,-320,1520,7739,58.300,1287.000,8054.343,1054.040,883.902,1187.266,-47.571,149.572,4.287,9.672,-47.765,-1.193
96113,124,-208,9981,61.843,1275.257,8078.429,1053.838,898.111,1208.810,35.429,-117.428,240.859,-2.020,142.092,215.441
96213,-1238,1666,6752,43.814,1291.086,8068.429,1065.066,895.089,1216.820,-180.286,158.285,-100.000,112.283,-30.219,80.098
96313,-383,1124,8142,38.271,1294.429,8061.771,1066.263,894.021,1215.124,-55.429,33.429,-66.572,11.965,-10.679,-16.965
96413,-685,2703,1480,26.900,1316.957,7964.171,1069.665,909.233,1443.938,-113.714,225.286,-976.001,34.028,152.121,2288.148
96513,3341,344,9986,74.800,1311.586,7999.857,1139.637,913.843,1462.478,479.000,-53.715,356.855,699.713,46.097,185.398
96613,-1401,673,8149,55.300,1305.771,7990.872,1152.966,916.588,1459.599,-195.000,-58.142,-89.854,133.292,27.455,-28.792
96713,477,420,11034,57.986,1298.257,8040.671,1153.726,921.649,1502.478,26.857,-75.143,497.998,7.599,50.609,428.794
96813,-543,98,3871,50.914,1282.686,7978.886,1155.869,932.524,1581.662,-70.714,-155.715,-617.856,21.429,108.749,791.833
96913,168,-1289,5958,52.957,1253.486,7953.357,1155.948,979.413,1599.551,20.429,-292.000,-255.288,0.787,468.891,178.890
97013,-347,3027,8468,51.214,1290.543,7957.957,1156.457,996.591,1600.561,-17.429,370.571,46.001,5.096,171.779,10.100
97113,1324,113,8502,69.957,1287.286,7964.100,1166.260,1000.056,1601.812,187.429,-32.571,61.431,98.027,34.645,12.507
97213,-1825,409,8904,44.100,1287.471,7970.086,1187.724,999.891,1604.527,-258.571,1.857,59.858,214.642,-1.644,27.158
97313,2543,-637,8494,81.543,1273.329,7985.643,1224.043,1019.812,1604.252,374.429,-141.428,155.571,363.187,199.205,-2.750
97413,-952,-2313,12732,71.086,1229.657,8041.143,1229.688,1103.561,1697.579,-104.571,-436.715,555.000,56.451,837.487,933.264
97513,-3037,2265,4694,27.829,1241.343,8001.643,1283.812,1110.111,1742.246,-432.571,116.858,-395.000,541.239,65.509,446.670
97613,-1061,1520,7213,11.729,1244.271,7999.729,1290.282,1110.572,1743.037,-161.000,29.286,-19.146,64.706,4.608,7.917
97713,-660,3070,8899,2.714,1262.714,8005.543,1292.737,1129.851,1745.347,-90.143,184.427,58.145,24.550,192.792,23.096
97813,2652,-953,6525,37.929,1229.871,7994.771,1330.305,1159.966,1752.111,352.143,-328.428,-107.715,375.680,301.144,67.642
97913,-1170,372,9028,23.429,1210.557,8009.986,1337.839,1162.830,1756.388,-145.000,-193.143,152.144,75.341,28.639,42.767
98013,937,751,6946,37.843,1192.571,7986.143,1342.162,1160.059,1759.339,144.143,-179.857,-238.428,43.229,-27.709,29.510
98113,-689,-2063,9228,28.657,1136.043,8002.657,1344.902,1219.395,1765.482,-91.857,-565.286,165.142,27.399,593.358,61.431
98213,3091,-2564,6981,78.843,1065.357,8007.771,1391.874,1286.567,1761.993,501.857,-706.857,51.143,469.716,671.721,-34.888
98313,-3251,-628,8740,39.371,1017.229,8008.872,1445.532,1285.998,1762.426,-394.714,-481.286,11.001,536.582,-5.691,4.324
98413,837,-762,7430,58.414,972.514,8009.729,1447.133,1292.652,1762.130,190.429,-447.143,8.569,16.011,66.543,-2.961
98513,2097,809,8550,94.200,966.657,8026.386,1466.006,1292.451,1761.647,357.857,-58.571,166.572,188.733,-2.013,-4.827
98613,-145,143,9961,95.257,951.257,8049.400,1465.807,1295.747,1776.187,10.571,-154.000,230.142,-1.996,32.959,145.404
98713,740,-5,7593,110.143,932.629,8038.286,1466.987,1299.980,1776.574,148.857,-186.285,-111.143,11.807,42.333,3.870
98813,2132,-442,8101,143.686,904.914,8031.214,1485.869,1308.284,1775.325,335.429,-277.143,-70.713,188.813,83.043,-12.493
98913,987,-27,8818,163.457,872.829,8030.514,1487.750,1303.195,1775.005,197.714,-320.858,-7.002,18.807,-50.896,-3.201
99013,10,28,9352,174.171,846.571,8070.000,1483.900,1301.434,1773.219,107.143,-262.571,394.858,-38.494,-17.601,-17.864
99113,1617,-27,8190,195.443,823.129,8080.471,1493.726,1302.179,1771.731,212.714,-234.428,104.712,98.254,7.446,-14.872
99213,64,-347,8101,205.857,795.329,8095.800,1490.228,1306.085,1767.195,104.143,-278.000,153.286,-34.980,39.058,-45.363
99313,2147,-516,8171,241.657,772.243,8090.714,1506.243,1314.749,1766.459,358.000,-230.857,-50.854,160.151,86.638,-7.360
99413,142,-425,8041,249.671,738.629,8099.814,1504.197,1314.849,1764.538,80.143,-336.143,91.001,-20.453,1.007,-19.214
99513,770,-388,10699,264.286,703.814,8155.229,1504.212,1311.953,1784.274,146.143,-348.143,554.141,0.148,-28.967,197.365
99613,704,-724,8699,280.443,669.286,8161.872,1502.773,1317.260,1785.420,161.572,-345.286,66.431,-14.387,53.070,11.461
99713,734,-778,9942,292.357,640.971,8190.400,1503.016,1326.729,1797.640,119.143,-283.143,285.283,2.427,94.692,122.197
99813,433,-320,8259,300.329,608.614,8206.558,1502.261,1322.143,1793.095,79.714,-323.572,161.577,-7.551,-45.857,-45.447
99913,838,-357,9444,303.700,581.957,8218.071,1503.199,1322.532,1798.409,33.714,-266.571,115.137,9.379,3.889,53.138
100013,772,-719,7753,314.857,545.486,8195.571,1503.735,1322.703,1794.229,111.571,-364.714,-225.000,5.360,1.714,-41.797
100113,25,-11,6635,315.100,523.471,8175.771,1503.687,1318.953,1803.669,2.429,-220.143,-197.998,-0.483,-37.505,94.399
100213,1987,-47,6593,367.814,491.500,8153.114,1496.678,1305.198,1813.422,527.143,-319.714,-226.572,-70.087,-137.554,97.521
100313,601,240,12258,349.914,466.200,8219.643,1486.253,1292.602,1876.282,-179.000,-253.000,665.283,-104.252,-125.955,628.601
100413,177,-921,11585,349.086,423.429,8295.157,1486.333,1288.254,1903.635,-8.286,-427.715,755.146,0.802,-43.483,273.536
100513,2324,-516,9104,356.729,398.000,8316.414,1495.067,1288.978,1904.240,76.429,-254.286,212.568,87.344,7.241,6.052
100613,1254,365,5186,381.014,388.043,8286.515,1495.638,1286.500,1936.454,242.857,-99.572,-298.994,5.704,-24.777,322.139
100713,1889,334,7507,409.786,370.786,8296.743,1504.969,1278.986,1930.410,287.714,-172.571,102.285,93.315,-75.148,-60.448
100813,1729,1206,7677,421.843,370.200,8264.400,1512.092,1278.593,1921.536,120.572,-5.857,-323.428,71.229,-3.922,-88.738
100913,2060,-196,7797,401.271,377.671,8268.643,1479.520,1273.726,1920.171,-205.714,74.714,42.422,-325.724,-48.677,-13.651
101013,2166,-58,11786,434.657,367.029,8327.129,1492.540,1274.209,1963.574,333.857,-106.429,584.863,130.200,4.832,434.037
101113,2497,-693,8627,448.700,348.443,8367.214,1507.182,1280.033,1940.510,140.429,-185.857,400.850,146.417,58.246,-230.646
101213,3056,510,6949,456.529,356.057,8367.900,1519.233,1279.386,1940.000,78.286,76.143,6.865,120.511,-6.470,-5.099
101313,1988,175,8142,473.200,344.029,8367.843,1529.509,1277.072,1940.006,166.714,-120.286,-0.576,102.761,-23.145,0.066
101413,2139,-738,8718,513.314,305.171,8391.714,1535.836,1267.991,1933.878,401.143,-388.571,238.711,63.270,-90.813,-61.287
101513,2212,144,6600,504.529,262.229,8371.643,1524.291,1220.947,1945.046,-87.857,-429.428,-200.713,-115.448,-470.433,111.682
101613,2613,355,7472,551.200,264.629,8340.086,1538.057,1220.962,1941.463,466.714,24.000,-315.566,137.662,0.149,-35.826
101713,2392,-23,8729,599.029,269.229,8369.243,1542.494,1219.262,1931.735,478.286,46.000,291.572,44.369,-17.000,-97.288
101813,622,-10,7553,590.657,260.957,8349.972,1540.756,1219.165,1933.052,-83.714,-82.714,-192.715,-17.385,-0.978,13.177
101913,4166,-739,9070,662.986,248.286,8355.043,1587.355,1224.869,1934.469,723.286,-126.714,50.713,465.994,57.043,14.161
102013,-614,588,8886,647.700,288.929,8282.743,1594.411,1187.702,1815.008,-152.857,406.428,-722.998,70.558,-371.666,-1194.607
102113,3435,-376,6745,725.971,257.157,8248.271,1594.836,1175.253,1820.962,782.714,-317.714,-344.717,4.254,-124.493,59.541
102213,-178,1685,5868,762.771,253.771,8218.500,1542.990,1170.785,1842.471,368.000,-33.857,-297.715,-518.459,-44.683,215.095
102313,4882,-484,5828,786.586,212.557,8227.000,1592.717,1144.966,1830.009,238.143,-412.143,85.000,497.264,-258.182,-124.626
102413,1891,2071,7883,792.471,220.286,8197.371,1596.022,1155.610,1818.513,58.857,77.286,-296.289,33.055,106.433,-114.961
102513,4387,552,6948,850.371,219.257,8184.986,1650.913,1155.282,1824.019,579.000,-10.286,-123.853,548.906,-3.279,55.063
102613,-244,484,9155,850.571,207.357,8203.729,1650.779,1148.182,1827.147,2.000,-119.000,187.427,-1.337,-71.002,31.278
102713,2170,305,7086,887.100,187.986,8175.043,1651.281,1134.854,1828.707,365.286,-193.714,-286.855,5.015,-133.271,15.599
102813,433,631,7555,882.900,187.286,8138.643,1652.056,1134.566,1815.278,-42.000,-7.000,-363.999,7.756,-2.886,-134.285
102913,755,5,6652,925.543,134.300,8087.771,1609.122,1052.248,1806.308,426.428,-529.857,-508.716,-429.341,-823.180,-89.705
103013,-321,1909,9315,925.529,139.857,8110.286,1609.133,1060.546,1811.635,-0.143,55.571,225.142,0.110,82.980,53.268
103113,3019,596,8522,966.886,151.343,8089.443,1625.125,1061.070,1798.336,413.572,114.857,-208.428,159.917,5.242,-132.985
103213,-1374,1331,8613,964.943,146.557,8116.029,1627.839,1054.966,1792.113,-19.429,-47.857,265.859,27.137,-61.045,-62.235
103313,1429,-12,6293,990.829,130.329,8089.614,1620.589,1048.523,1805.114,258.857,-162.286,-264.146,-72.496,-64.430,130.017
103413,-1325,1543,6323,981.686,113.757,8158.800,1631.784,1016.407,1635.279,-91.428,-165.714,691.855,111.953,-321.159,-1698.354
103513,1818,216,6993,959.929,111.929,8116.043,1610.192,1016.106,1626.047,-217.571,-18.286,-427.568,-215.922,-3.008,-92.321
103613,-2237,-860,6836,947.986,90.029,8097.286,1630.630,1020.289,1633.116,-119.429,-219.000,-187.573,204.375,41.829,70.693
103713,3713,-556,8421,994.214,76.086,8059.957,1662.187,1022.351,1594.982,462.286,-139.429,-373.286,315.573,20.621,-381.339
103813,-1552,290,6927,979.800,78.829,8103.614,1679.737,1022.664,1519.777,-144.143,27.429,436.572,175.504,3.127,-752.052
103913,55,846,7229,978.186,109.329,8121.771,1680.571,1013.208,1501.517,-16.143,305.000,181.572,8.337,-94.556,-182.596
104013,490,151,8967,990.143,68.243,8128.900,1674.065,950.429,1504.326,119.572,-410.857,71.284,-65.063,-627.787,28.088
104113,-596,-572,8107,962.714,58.457,8123.257,1684.069,953.440,1503.657,-274.286,-97.857,-56.426,100.044,30.104,-6.696
104213,956,-207,8127,1002.443,49.657,8112.157,1650.301,953.006,1500.717,397.286,-88.000,-111.001,-337.686,-4.333,-29.395
104313,282,-692,8236,970.143,48.871,8108.471,1641.938,953.595,1500.092,-323.000,-7.857,-36.860,-83.630,5.883,-6.257
104413,884,-1376,8269,996.371,62.257,8044.714,1625.606,926.539,1393.267,262.285,133.857,-637.568,-163.311,-270.553,-1068.248
104513,289,-774,7375,1043.886,18.843,8083.014,1554.055,892.897,1336.317,475.143,-434.143,382.998,-715.519,-336.422,-569.497
104613,-386,-2326,9009,1053.529,-36.100,8108.671,1543.019,916.843,1336.608,96.428,-549.429,256.572,-110.356,239.459,2.909
104713,1582,-1968,8357,1085.557,-108.071,8100.929,1530.335,866.552,1333.574,320.286,-719.714,-77.427,-126.837,-502.910,-30.342
104813,320,-1245,8313,1052.243,-112.243,8126.471,1521.228,871.299,1320.200,-333.143,-41.714,255.425,-91.071,47.472,-133.733
104913,27,-149,6082,1069.343,-119.686,8084.386,1502.768,869.354,1337.632,171.001,-74.429,-420.854,-184.604,-19.453,174.316
105013,389,-1446,8490,1061.514,-151.071,8106.443,1504.863,876.979,1331.394,-78.286,-313.857,220.571,20.951,76.246,-62.380
105113,-412,-1452,8771,1065.471,-142.343,8099.914,1500.613,860.797,1326.992,39.572,87.286,-65.288,-42.502,-161.815,-44.023
105213,127,-1319,7324,1023.129,-124.557,8104.814,1484.593,822.591,1323.479,-423.428,177.857,49.004,-160.197,-382.056,-35.122
105313,-276,-968,8336,1065.629,-129.414,8099.043,1401.908,826.544,1321.577,424.999,-48.571,-57.715,-826.848,39.526,-19.028
105413,-572,-987,9293,1045.500,-132.629,8125.657,1415.100,829.430,1326.584,-201.285,-32.143,266.143,131.915,28.862,50.078
105513,-144,-1234,7243,1013.486,-161.814,8106.986,1416.298,831.724,1329.675,-320.143,-291.857,-186.714,11.981,22.939,30.905
105613,-480,-1066,7604,1008.700,-179.086,8073.314,1420.763,837.746,1312.025,-47.857,-172.714,-336.714,44.653,60.220,-176.497
105713,-584,-1119,8741,989.786,-195.000,8089.714,1432.975,844.839,1313.094,-189.143,-159.143,163.999,122.119,70.928,10.684
105813,42,-1308,8600,959.929,-207.371,8096.843,1430.636,854.649,1314.489,-298.571,-123.714,71.284,-23.386,98.102,13.956
105913,-322,-1232,7669,941.229,-224.586,8080.429,1438.693,862.938,1312.554,-187.000,-172.143,-164.141,80.564,82.889,-19.354
106013,-167,-1384,8151,938.700,-244.757,8063.271,1440.482,873.239,1303.640,-25.286,-201.714,-171.572,17.888,103.014,-89.143
106113,-56,-1241,8408,914.800,-262.100,8066.386,1442.906,880.765,1304.199,-239.000,-173.429,31.143,24.246,75.260,5.593
106213,-366,-1904,8815,908.657,-284.343,8076.586,1447.423,902.032,1307.218,-61.428,-222.429,102.002,45.171,212.666,30.194
106313,-166,-1643,7996,875.614,-300.443,8074.086,1445.176,915.973,1307.203,-330.429,-161.000,-25.000,-22.471,139.410,-0.157
106413,-67,-2141,8084,872.629,-324.957,8074.700,1446.904,941.583,1307.197,-29.857,-245.143,6.143,17.274,256.102,-0.055
106513,-173,-1928,7789,859.157,-346.957,8033.128,1452.177,960.598,1268.786,-134.714,-220.000,-415.718,52.731,190.151,-384.114
106613,-163,-1715,7767,846.771,-361.114,8019.814,1457.136,973.270,1266.616,-123.857,-141.571,-133.140,49.595,126.714,-21.692
106713,-136,-1987,8104,834.343,-378.386,7993.557,1461.748,991.079,1245.370,-124.286,-172.714,-262.573,46.118,178.091,-212.466
106813,293,-1892,6715,832.343,-400.843,7971.500,1462.391,1007.181,1254.116,-20.000,-224.572,-220.571,6.436,161.019,87.460
106913,-385,-2237,8338,814.871,-427.700,7955.700,1469.508,1030.451,1242.377,-174.714,-268.571,-157.998,71.166,232.698,-117.389
107013,367,-2279,8778,809.086,-449.986,7970.343,1470.462,1053.129,1245.937,-57.857,-222.857,146.426,9.542,226.786,35.602
107113,233,-1912,8334,812.057,-477.143,7994.614,1469.084,1065.892,1236.198,29.714,-271.571,242.715,-13.779,127.629,-97.391
107213,77,-1805,7530,784.771,-502.257,8008.000,1464.740,1076.123,1225.979,-272.857,-251.143,133.857,-43.448,102.310,-102.190
107313,156,-1510,7757,778.414,-527.257,7943.700,1466.488,1078.913,1114.341,-63.571,-250.000,-642.998,17.482,27.897,-1116.382
107413,-75,-1380,8198,774.814,-533.814,7895.314,1468.268,1082.674,1025.145,-36.000,-65.571,-483.857,17.805,37.615,-891.956
107513,141,-1355,8077,743.629,-545.800,7880.643,1458.181,1087.046,1015.041,-311.857,-119.857,-146.714,-100.869,43.717,-101.041
107613,-8,-1527,7601,725.600,-572.829,7915.143,1459.560,1087.585,962.552,-180.286,-270.286,345.000,13.790,5.391,-524.895
107713,-96,-1392,8207,697.243,-597.486,7925.143,1455.960,1086.311,961.895,-283.571,-246.572,100.000,-36.005,-12.740,-6.562
107813,3,-1387,8346,672.586,-634.529,7934.700,1452.890,1068.241,962.706,-246.572,-370.428,95.571,-30.698,-180.699,8.102
107913,371,-1424,7722,648.457,-652.071,7933.628,1443.644,1070.975,962.900,-241.285,-175.428,-10.718,-92.458,27.341,1.944
108013,-123,-1350,7866,615.757,-670.529,7877.628,1434.797,1071.711,843.857,-327.000,-184.572,-560.000,-88.474,7.356,-1190.430
108113,14,-1376,8367,580.286,-680.286,7873.914,1418.449,1074.975,841.118,-354.714,-97.571,-37.144,-163.475,32.645,-27.388
108213,-152,-1419,8108,534.457,-707.843,7890.471,1389.244,1068.816,834.127,-458.286,-275.571,165.571,-292.051,-61.592,-69.913
108313,-6,-1489,8145,505.971,-731.614,7890.514,1379.557,1067.420,834.140,-284.857,-237.714,0.430,-96.870,-13.960,0.131
108413,-161,-1381,8313,473.114,-740.800,7884.729,1367.610,1070.199,829.773,-328.571,-91.857,-57.856,-119.475,27.787,-43.667
108513,-266,-1381,8347,437.714,-762.586,7909.686,1354.146,1067.484,816.930,-354.000,-217.857,249.570,-134.636,-27.148,-128.432
108613,-73,-1321,8016,399.343,-786.529,7917.457,1329.799,1060.924,815.315,-383.714,-239.429,77.715,-243.466,-65.596,-16.146
108713,-188,-1430,7848,362.486,-806.629,7904.872,1309.661,1059.596,809.470,-368.571,-201.000,-125.854,-201.383,-13.286,-58.458
108813,-270,-1517,8559,349.743,-828.157,7919.243,1311.412,1058.500,812.021,-127.429,-215.286,143.711,17.512,-10.957,25.515
108913,102,-1296,7934,291.686,-836.114,7903.014,1228.517,1059.893,800.125,-580.572,-79.571,-162.285,-828.953,13.927,-118.959
109013,-169,-1464,7905,298.043,-865.429,7889.000,1224.960,1048.414,791.328,63.571,-293.143,-140.142,-35.569,-114.784,-87.972
109113,-188,-1517,8210,246.286,-881.729,7909.929,1166.467,1049.547,780.089,-517.571,-163.000,209.287,-584.930,11.331,-112.394
109213,31,-1491,8149,249.271,-927.100,7942.514,1165.644,1005.325,740.762,29.857,-453.714,325.854,-8.228,-442.222,-393.262
109313,-144,-1370,7813,177.471,-939.757,7970.872,1024.294,1005.244,695.910,-718.000,-126.572,283.574,-1413.502,-0.812,-448.525
109413,6,-1505,8018,150.543,-990.843,7972.800,1003.458,939.667,695.851,-269.286,-510.857,19.282,-208.363,-655.764,-0.590
109513,67,-1479,8248,88.829,-1019.857,7991.372,864.190,922.785,685.523,-617.143,-290.143,185.718,-1392.674,-168.824,-103.275
109613,-42,-441,8197,91.714,-1033.071,7977.686,863.411,907.654,671.577,28.857,-132.143,-136.860,-7.794,-151.309,-139.464
109713,-64,136,7944,59.800,-1035.486,7989.943,826.500,904.310,662.965,-319.143,-24.143,122.573,-369.108,-33.438,-86.116
109813,77,255,7513,54.714,-1040.857,7989.343,825.283,895.469,663.378,-50.857,-53.715,-6.001,-12.177,-88.412,4.122
109913,158,508,7801,46.186,-1033.671,8005.757,821.076,905.792,644.017,-85.286,71.858,164.146,-42.069,103.224,-193.610
110013,-192,-180,7947,48.029,-1063.514,7986.214,820.394,840.401,624.450,18.429,-298.429,-195.430,-6.816,-653.905,-195.670
110113,8,-305,8203,5.014,-1076.386,7981.657,738.325,821.575,621.681,-430.143,-128.715,-45.571,-820.692,-188.264,-27.689
110213,188,-324,8222,27.329,-1100.029,7976.071,719.679,774.416,617.727,223.143,-236.428,-55.859,-186.462,-471.588,-39.536
110313,58,16,7853,7.743,-1099.629,7998.357,699.643,774.985,583.814,-195.857,4.000,222.856,-200.356,5.690,-339.130
110413,-4,152,7814,26.614,-1119.500,8019.657,681.008,723.064,548.428,188.714,-198.715,213.003,-186.350,-519.205,-353.862
110513,4,-280,7985,0.700,-1126.586,8033.829,645.960,712.292,534.352,-259.143,-70.857,141.714,-350.485,-107.719,-140.759
110613,112,-205,8285,34.257,-1117.229,8054.529,587.181,719.994,515.275,335.571,93.572,207.002,-587.783,77.013,-190.776
110713,-32,68,7938,-19.243,-1108.314,8047.628,385.554,730.671,513.552,-535.000,89.142,-69.004,-2016.277,106.772,-17.226
110813,-14,23,7683,2.729,-1112.129,8058.429,338.537,724.028,497.572,219.714,-38.142,108.003,-470.168,-66.429,-159.796
