tstm,aX,aY,aZ,meanX,meanY,meanZ,stdX,stdY,stdZ,meanDiffX,meanDiffY,meanDiffZ,stdDiffX,stdDiffY,stdDiffZ,HardAccel,HardBrake,LaneChanL,LaneChanR,ui8LaneHole
7113,-2447,-1549,7919,2293.300,-785.400,7383.729,1757.781,914.144,1212.296,-630.000,-220.572,26.714,945.380,0.632,9.769,0,0,0,1,0
7213,-2534,-1489,7987,2225.143,-803.514,7389.829,1848.783,915.344,1214.240,-681.572,-181.143,61.001,910.024,11.992,19.443,0,0,0,0,0
7313,-1825,-1166,7958,2153.543,-813.500,7397.486,1906.304,915.431,1216.107,-715.999,-99.857,76.572,575.206,0.872,18.674,0,0,0,0,0
7413,-1869,-902,7859,2075.657,-819.486,7413.257,1957.011,914.619,1214.831,-778.857,-59.857,157.715,507.074,-8.114,-12.765,0,0,0,0,0
7513,-1833,-1079,7924,1994.329,-825.329,7435.014,1999.011,914.952,1210.136,-813.286,-58.428,217.568,420.000,3.329,-46.949,0,0,0,0,0
7613,-1946,-1189,7707,1912.571,-838.686,7450.243,2041.021,913.337,1206.751,-817.572,-133.572,152.285,420.095,-16.147,-33.851,0,0,0,0,0
7713,-2033,-1076,7770,1836.657,-853.257,7460.257,2087.018,908.860,1206.454,-759.143,-145.714,100.146,459.974,-44.775,-2.969,0,0,0,0,0
7813,-1506,-651,7594,1771.086,-857.071,7466.014,2118.664,907.442,1206.117,-655.714,-38.143,57.568,316.460,-14.183,-3.368,0,0,0,0,0
7913,-1673,-600,7363,1698.829,-863.814,7471.086,2148.432,903.745,1204.926,-722.571,-67.429,50.718,297.676,-36.965,-11.909,0,0,0,0,0
8013,-1582,-1026,7560,1628.443,-881.629,7483.100,2173.905,894.428,1201.555,-703.857,-178.143,120.142,254.731,-93.167,-33.710,0,0,0,0,0
8113,-1610,-489,7925,1554.929,-885.957,7495.957,2195.062,891.781,1201.400,-735.143,-43.286,128.569,211.570,-26.478,-1.553,0,0,0,0,0
8213,-1163,-894,7341,1493.786,-894.986,7501.386,2210.256,888.611,1199.828,-611.428,-90.286,54.287,151.936,-31.692,-15.720,0,0,0,0,0
8313,-1594,-1136,7704,1431.214,-909.986,7505.971,2234.651,883.677,1199.980,-625.715,-150.000,45.854,243.958,-49.340,1.522,0,0,0,0,0
8413,-508,-1572,8271,1384.171,-937.871,7516.757,2240.311,873.268,1203.410,-470.428,-278.857,107.861,56.599,-104.094,34.297,0,0,0,0,0
8513,-825,-1396,8194,1329.114,-962.371,7527.000,2246.561,861.642,1206.076,-550.571,-245.000,102.427,62.493,-116.257,26.663,0,0,0,0,0
8613,-554,-1310,8248,1279.800,-968.714,7544.814,2249.466,862.543,1207.384,-493.142,-63.429,178.145,29.058,9.009,13.081,0,0,0,0,0
8713,-307,-1189,8147,1232.914,-965.400,7571.900,2247.848,861.244,1199.296,-468.857,33.143,270.854,-16.187,-12.996,-80.886,0,0,0,0,0
8813,101,-1399,8107,1196.457,-961.429,7584.900,2245.213,858.590,1200.093,-364.572,39.714,130.000,-26.343,-26.536,7.976,0,0,0,0,0
8913,-212,-826,8412,1137.600,-945.829,7635.500,2227.290,850.955,1158.508,-588.572,156.000,506.001,-179.231,-76.354,-415.852,0,0,0,0,0
9013,329,-1072,8125,1094.843,-941.814,7655.071,2213.633,849.686,1155.034,-427.571,40.143,195.713,-136.577,-12.685,-34.735,0,0,0,0,0
9113,-354,-395,8018,1051.114,-954.814,7638.071,2211.587,834.117,1140.722,-437.286,-130.000,-170.000,-20.457,-155.695,-143.127,0,0,0,0,0
9213,586,-382,7733,1016.700,-954.686,7647.514,2199.782,834.204,1138.731,-344.142,1.285,94.429,-118.052,0.875,-19.907,0,0,0,0,0
9313,516,-817,7829,985.086,-944.243,7657.757,2190.830,831.282,1137.091,-316.143,104.429,102.432,-89.517,-29.222,-16.396,0,0,0,0,0
9413,544,-845,7497,946.886,-937.900,7664.372,2174.817,830.320,1134.788,-382.000,63.428,66.143,-160.129,-9.614,-23.031,0,0,0,0,0
9513,293,-829,7539,905.857,-929.471,7666.400,2159.622,828.386,1134.435,-410.286,84.286,20.283,-151.948,-19.343,-3.530,0,0,0,0,0
9613,160,-530,7497,857.857,-887.614,7683.743,2138.220,771.539,1122.369,-480.000,418.572,173.428,-214.019,-568.476,-120.662,0,0,0,0,0
9713,-66,-514,8147,812.029,-859.343,7751.543,2123.098,748.097,998.075,-458.286,282.714,678.003,-151.223,-234.420,-1242.936,0,0,0,0,0
9813,75,-1010,7829,760.543,-878.229,7779.986,2096.482,734.858,971.145,-514.857,-188.857,284.429,-266.162,-132.390,-269.307,0,0,0,0,0
9913,1316,202,7960,716.986,-818.271,7727.214,2052.350,643.673,852.291,-435.571,599.572,-527.715,-441.318,-911.842,-1188.535,0,0,0,0,0
10013,1121,-472,8026,689.943,-802.100,7756.686,2034.298,637.924,826.041,-270.428,161.714,294.712,-180.520,-57.491,-262.505,0,0,0,0,0
10113,1055,-976,8536,649.857,-798.600,7770.643,1998.753,636.286,830.823,-400.858,35.000,139.575,-355.448,-16.380,47.821,0,0,0,0,0
10213,781,-2131,8698,604.857,-811.100,7799.429,1959.448,653.511,827.541,-450.000,-125.000,287.856,-393.054,172.246,-32.818,0,0,0,0,0
10313,-130,147,10497,543.457,-792.129,7860.500,1913.638,661.722,865.739,-614.000,189.714,610.713,-458.102,82.108,381.976,0,0,0,0,0
10413,1500,463,8832,504.014,-766.257,7889.486,1864.429,674.757,863.811,-394.429,258.715,289.858,-492.091,130.353,-19.273,0,0,0,0,0
10513,-714,515,9552,441.114,-748.914,7932.171,1829.868,691.653,871.054,-629.000,173.428,426.855,-345.610,168.957,72.423,0,0,0,0,0
10613,-416,952,8796,376.571,-719.400,7957.243,1778.563,718.984,870.299,-645.428,295.143,250.713,-513.047,273.315,-7.547,0,0,0,0,0
10713,19,1257,8151,319.214,-687.071,7974.271,1723.579,755.329,862.225,-573.571,323.286,170.288,-549.836,363.448,-80.743,0,0,0,0,0
10813,-366,695,7715,256.114,-663.500,7987.057,1665.685,772.158,851.583,-631.000,235.714,127.856,-578.945,168.291,-106.412,0,0,0,0,0
10913,-513,517,7862,198.500,-642.257,7998.971,1620.942,783.800,843.882,-576.143,212.429,119.141,-447.430,116.424,-77.018,0,0,0,0,0
11013,-217,303,7942,150.229,-627.743,8001.300,1581.811,791.723,843.496,-482.714,145.143,23.286,-391.307,79.227,-3.855,0,0,0,0,0
11113,425,-855,7492,104.329,-625.614,8019.043,1525.555,790.909,819.183,-459.000,21.286,177.432,-562.557,-8.146,-243.127,0,0,0,0,0
11213,-99,715,7613,78.871,-624.071,8014.086,1513.822,793.413,820.574,-254.571,15.428,-49.570,-117.329,25.044,13.909,0,0,0,0,0
11313,-432,1313,7615,-5.471,-581.714,8027.971,1368.488,816.222,805.338,-843.429,423.571,138.853,-1453.339,228.093,-152.361,0,0,0,0,0
11413,-820,-236,7783,-43.443,-572.529,8061.986,1353.606,816.443,741.458,-379.714,91.857,340.146,-148.827,2.208,-638.806,0,0,0,0,0
11513,-547,594,8353,-89.471,-550.786,8055.043,1314.603,826.886,736.407,-460.286,217.429,-69.429,-390.024,104.433,-50.501,0,0,0,0,0
11613,-530,676,8486,-143.571,-523.543,8060.714,1252.215,835.398,738.174,-541.000,272.429,56.714,-623.879,85.112,17.662,0,0,0,0,0
11713,-640,328,8698,-176.700,-515.643,8060.714,1234.104,840.781,738.174,-331.286,79.000,0.000,-181.113,53.832,0.000,0,0,0,0,0
11813,-744,492,8329,-191.071,-505.557,8031.171,1234.769,848.537,683.433,-143.714,100.858,-295.430,6.649,77.565,-547.403,0,0,0,0,0
11913,-541,670,8346,-228.700,-475.657,8044.329,1204.350,852.549,680.496,-376.286,299.000,131.572,-304.187,40.115,-29.373,0,0,0,0,0
12013,-763,679,8069,-258.600,-462.629,8047.414,1191.191,863.061,680.111,-299.000,130.286,30.854,-131.593,105.124,-3.850,0,0,0,0,0
12113,-547,651,8195,-293.514,-442.814,8052.529,1162.981,872.428,679.856,-349.143,198.143,51.147,-282.098,93.670,-2.554,0,0,0,0,0
12213,-385,500,8318,-328.014,-426.900,8062.443,1128.862,879.294,678.593,-345.000,159.143,99.141,-341.190,68.656,-12.625,0,0,0,0,0
12313,-1564,1026,7821,-364.471,-405.314,8066.657,1126.980,895.991,676.160,-364.572,215.857,42.144,-18.824,166.970,-24.328,0,0,0,0,0
12413,302,840,7939,-384.957,-384.143,8076.400,1101.354,907.582,669.302,-204.857,211.714,97.427,-256.257,115.914,-68.580,0,0,0,0,0
12513,-1514,749,7360,-432.571,-369.114,8064.457,1076.816,917.458,674.500,-476.143,150.286,-119.429,-245.381,98.754,51.979,0,0,0,0,0
12613,76,697,7470,-453.143,-346.314,8060.143,1052.883,923.815,677.317,-205.714,228.000,-43.140,-239.332,63.577,28.167,0,0,0,0,0
12713,-442,932,7746,-476.586,-324.243,8051.386,1033.934,935.562,677.359,-234.429,220.714,-87.573,-189.481,117.463,0.422,0,0,0,0,0
12813,-490,1108,7806,-494.743,-301.786,8052.300,1022.790,950.682,676.984,-181.571,224.572,9.141,-111.443,151.207,-3.752,0,0,0,0,0
12913,-388,988,7549,-503.929,-271.329,8046.600,1018.896,957.341,679.513,-91.857,304.571,-56.997,-38.945,66.582,25.292,0,0,0,0,0
13013,-1772,2,8251,-541.586,-259.043,8045.757,1016.351,955.249,679.222,-376.571,122.857,-8.428,-25.444,-20.916,-2.908,0,0,0,0,0
13113,-704,1199,7809,-563.786,-241.086,8036.643,1002.591,970.552,678.057,-222.000,179.571,-91.143,-137.599,153.027,-11.657,0,0,0,0,0
13213,1922,755,8370,-526.857,-215.943,8045.043,1044.968,973.230,678.492,369.286,251.429,83.999,423.767,26.780,4.354,0,0,0,0,0
13313,-406,1347,8099,-515.014,-179.157,8050.186,1041.568,982.897,677.517,118.428,367.857,51.426,-34.005,96.678,-9.756,0,0,0,0,0
13413,-327,1112,8195,-507.629,-156.557,8064.729,1041.041,994.074,669.496,73.857,226.000,145.430,-5.261,111.769,-80.209,0,0,0,0,0
13513,-1355,2100,8689,-514.143,-109.171,8080.843,1044.890,1021.086,670.751,-65.143,473.857,161.143,38.483,270.120,12.557,0,0,0,0,0
13613,-1406,2562,8508,-511.514,-52.557,8102.514,1042.408,1057.120,659.603,26.286,566.143,216.714,-24.813,360.334,-111.481,0,0,0,0,0
13713,947,-1248,7337,-543.543,-115.171,8040.157,959.350,994.408,504.450,-320.286,-626.143,-623.569,-830.580,-627.119,-1551.534,0,0,0,0,0
13813,423,-3112,8151,-517.114,-154.971,8043.386,960.130,1055.901,504.426,264.286,-398.000,32.285,7.802,614.935,-0.242,0,1,0,0,0
13913,-1632,1127,9089,-517.886,-129.114,8059.486,961.004,1064.779,519.336,-7.715,258.571,161.001,8.734,88.774,149.106,0,0,0,0,0
14013,-506,128,7460,-498.000,-114.586,8053.100,946.533,1061.244,523.900,198.857,145.286,-63.857,-144.711,-35.350,45.638,0,0,0,0,0
14113,2821,2178,6677,-422.743,-61.343,8035.357,996.676,1081.247,548.591,752.571,532.429,-177.432,501.434,200.033,246.906,0,0,1,0,0
14213,5,120,7752,-386.471,-38.357,8032.000,964.875,1067.670,549.594,362.714,229.857,-33.569,-318.010,-135.770,10.038,0,0,0,0,0
14313,-234,956,7537,-363.743,-8.043,8025.986,949.335,1065.345,552.666,227.286,303.143,-60.142,-155.400,-23.252,30.718,0,0,0,0,0
14413,-174,770,7633,-339.529,15.843,8022.757,932.093,1063.776,554.290,242.143,238.857,-32.285,-172.425,-15.684,16.238,0,0,0,0,0
14513,-247,458,7647,-316.871,37.800,8018.800,914.627,1056.791,555.967,226.571,219.571,-39.575,-174.659,-69.854,16.771,0,0,0,0,0
14613,530,-535,7327,-281.500,47.143,8013.372,898.677,1048.764,560.819,353.714,93.429,-54.282,-159.492,-80.269,48.520,0,0,0,0,0
14713,411,3,7080,-246.586,62.557,8003.514,877.170,1040.036,570.982,349.143,154.143,-98.574,-215.071,-87.278,101.627,0,0,0,0,0
14813,-912,1333,8538,-238.100,90.900,8017.000,867.769,1047.214,572.297,84.857,283.429,134.858,-94.019,71.772,13.150,0,0,0,0,0
14913,-2041,1414,8389,-243.357,119.671,8031.657,877.506,1055.470,568.485,-52.571,287.714,146.572,97.372,82.568,-38.116,0,0,0,0,0
15013,-1942,1393,7697,-248.500,154.229,8033.614,886.347,1056.994,567.092,-51.429,345.572,19.570,88.408,15.231,-13.930,0,0,0,0,0
15113,-936,1550,7467,-238.871,183.357,8027.071,875.093,1066.915,570.937,96.286,291.286,-65.430,-112.531,99.214,38.445,0,0,0,0,0
15213,-158,930,7799,-224.514,209.414,8033.614,868.030,1062.549,565.637,143.571,260.571,65.430,-70.637,-43.658,-53.001,0,0,0,0,0
15313,-822,10,8435,-213.486,225.786,8044.057,855.372,1050.453,566.203,110.286,163.714,104.429,-126.578,-120.959,5.659,0,0,0,0,0
15413,-760,-88,8555,-217.086,246.986,8048.114,857.132,1028.706,568.826,-36.000,212.000,40.571,17.604,-217.467,26.230,0,0,0,0,0
15513,-664,310,7959,-214.786,271.357,8044.757,855.713,1009.523,568.648,23.000,243.714,-33.569,-14.196,-191.834,-1.774,0,0,0,0,0
15613,-1223,-924,8281,-224.343,276.871,8045.229,863.152,1001.896,568.830,-95.571,55.143,4.712,74.389,-76.274,1.819,0,0,0,0,0
15713,-445,547,8102,-226.314,301.671,8044.586,863.496,986.674,568.740,-19.714,248.000,-6.426,3.440,-152.219,-0.900,0,0,0,0,0
15813,-184,-54,8101,-230.386,320.886,8044.500,862.614,966.253,568.731,-40.714,192.143,-0.859,-8.813,-204.207,-0.091,0,0,0,0,0
15913,-3,610,7835,-227.400,341.400,8036.257,863.034,956.884,567.525,29.857,205.143,-82.427,4.200,-93.688,-12.059,0,0,0,0,0
16013,518,817,7286,-224.700,368.386,8024.271,865.064,943.182,574.343,27.000,269.857,-119.858,20.298,-137.022,68.178,0,0,0,0,0
16113,-248,712,7750,-223.186,384.200,8020.443,864.929,939.523,575.265,15.143,158.143,-38.286,-1.350,-36.590,9.216,0,0,0,0,0
16213,-1229,759,7582,-249.114,400.500,8018.286,867.484,935.980,576.620,-259.286,163.000,-21.572,25.550,-35.432,13.553,0,0,0,0,0
16313,-762,449,7950,-267.371,418.586,8020.014,864.633,924.440,576.231,-182.571,180.857,17.285,-28.511,-115.401,-3.889,0,0,0,0,0
16413,-944,458,7881,-288.629,437.200,8025.500,862.713,911.842,573.045,-212.571,186.143,54.858,-19.199,-125.981,-31.863,0,0,0,0,0
16513,-256,453,7874,-296.471,455.514,8030.286,859.881,899.010,570.355,-78.429,183.143,47.856,-28.323,-128.313,-26.902,0,0,0,0,0
16613,-383,821,7945,-304.229,474.814,8036.686,858.176,892.121,566.837,-77.571,193.000,63.999,-17.053,-68.889,-35.173,0,0,0,0,0
16713,-444,826,8365,-309.629,493.957,8039.800,857.849,885.047,568.033,-54.000,191.429,31.143,-3.268,-70.745,11.953,0,0,0,0,0
16813,-583,403,8345,-319.029,514.143,8047.171,857.187,866.433,568.597,-94.000,201.857,73.716,-6.615,-186.138,5.643,0,0,0,0,0
16913,-3469,801,8043,-387.386,522.700,8048.357,913.047,866.266,568.500,-683.571,85.571,11.855,558.596,-1.671,-0.964,0,0,0,0,0
17013,-945,490,8143,-416.900,536.443,8050.029,897.063,857.968,568.604,-295.143,137.429,16.719,-159.837,-82.984,1.039,0,0,0,0,0
17113,-698,412,8156,-441.943,556.271,8044.600,879.928,838.605,565.745,-250.429,198.286,-54.287,-171.347,-193.627,-28.589,0,0,0,0,0
17213,-740,390,7861,-463.671,592.286,8032.643,868.162,774.075,560.631,-217.285,360.143,-119.570,-117.663,-645.294,-51.140,0,0,0,0,0
17313,-664,580,7850,-471.300,598.471,7994.829,867.542,772.220,476.021,-76.286,61.857,-378.145,-6.197,-18.552,-846.102,0,0,0,0,0
17413,-459,552,7535,-499.286,599.743,7976.300,834.467,772.069,468.253,-279.857,12.714,-185.288,-330.759,-1.508,-77.678,0,0,0,0,0
17513,-351,488,7540,-494.100,599.357,7947.557,834.244,772.118,430.912,51.857,-3.857,-287.427,-2.224,0.489,-373.410,0,0,0,0,0
17613,-226,289,7636,-491.386,589.886,7930.986,834.802,771.801,420.136,27.143,-94.714,-165.713,5.583,-3.175,-107.768,0,0,0,0,0
17713,-552,292,7768,-499.543,576.100,7925.514,832.562,768.372,419.728,-81.571,-137.858,-54.717,-22.402,-34.283,-4.072,0,0,0,0,0
17813,-418,236,7849,-500.286,569.543,7927.429,832.466,769.288,419.069,-7.429,-65.571,19.146,-0.963,9.155,-6.594,0,0,0,0,0
17913,-147,1508,7987,-495.057,583.700,7929.214,833.518,777.268,419.053,52.286,141.572,17.856,10.523,79.800,-0.163,0,0,0,0,0
18013,-243,-1027,8858,-495.429,564.700,7942.300,833.400,799.826,433.307,-3.714,-190.000,130.854,-1.181,225.576,142.544,0,0,0,0,0
18113,-544,-393,8981,-509.271,571.300,7963.571,826.012,789.928,447.011,-138.429,66.000,212.715,-73.885,-98.973,137.038,0,0,0,0,0
18213,509,341,8442,-500.586,565.957,7975.414,833.443,790.203,448.545,86.857,-53.428,118.428,74.316,2.748,15.341,0,0,0,0,0
18313,-460,376,8278,-500.986,552.571,7984.886,833.417,785.356,447.834,-4.000,-133.857,94.717,-0.264,-48.467,-7.112,0,0,0,0,0
18413,95,-56,8366,-487.914,555.143,7993.214,835.484,783.061,449.420,130.714,25.715,83.286,20.671,-22.948,15.864,0,0,0,0,0
18513,-242,172,8428,-483.557,549.114,7994.286,835.960,784.362,450.365,43.571,-60.286,10.713,4.756,13.010,9.448,0,0,0,0,0
18613,-418,188,8153,-481.957,542.143,7989.529,835.976,785.372,446.891,16.000,-69.714,-47.568,0.168,10.093,-34.737,0,0,0,0,0
18713,-1041,544,7818,-487.686,545.229,7976.957,838.410,784.949,439.094,-57.285,30.857,-125.718,24.339,-4.232,-77.972,0,0,0,0,0
18813,-336,523,7492,-481.857,545.671,7965.000,838.026,784.927,440.738,58.286,4.429,-119.570,-3.843,-0.215,16.439,0,0,0,0,0
18913,15,508,7298,-473.914,543.357,7950.029,840.060,784.796,445.318,79.429,-23.143,-149.712,20.342,-1.310,45.795,0,0,0,0,0
19013,-524,324,7747,-470.500,538.286,7945.429,839.364,785.050,445.728,34.143,-50.714,-46.001,-6.962,2.540,4.101,0,0,0,0,0
19113,-821,-417,8154,-474.414,523.029,7944.843,840.350,793.049,445.426,-39.143,-152.571,-5.859,9.858,79.986,-3.014,0,0,0,0,0
19213,-659,-970,7743,-478.329,502.029,7936.628,840.562,812.602,443.768,-39.143,-210.000,-82.144,2.125,195.536,-16.585,0,0,0,0,0
19313,1132,384,8197,-439.814,492.857,7942.000,851.627,810.256,444.610,385.143,-91.714,53.716,110.647,-23.461,8.427,0,0,0,0,0
19413,-3238,-3639,11355,-490.386,428.871,7990.800,909.233,945.827,601.419,-505.714,-639.857,487.998,576.060,1355.707,1568.087,0,0,0,0,1
19513,-7,-295,7555,-468.857,413.957,7993.586,902.558,948.888,598.937,215.286,-149.143,27.861,-66.750,30.607,-24.818,0,0,0,0,0
19613,-1028,-726,8711,-484.629,393.629,8011.314,902.545,957.807,601.538,-157.714,-203.286,177.285,-0.131,89.194,26.006,0,0,0,0,0
19713,-631,-916,8670,-487.329,367.229,8024.514,902.696,968.018,605.695,-27.000,-264.000,131.997,1.512,102.108,41.569,0,0,0,0,0
19813,-284,-980,8357,-484.386,337.400,8032.386,903.018,976.862,606.384,29.429,-298.286,78.716,3.223,88.438,6.890,0,0,0,0,0
19913,-488,-972,8263,-485.814,309.400,8042.586,902.944,985.860,604.168,-14.286,-280.000,102.002,-0.745,89.988,-22.158,0,0,0,0,0
20013,-849,-683,8213,-472.629,299.614,8042.043,890.722,992.242,603.998,131.857,-97.857,-5.430,-122.220,63.818,-1.704,0,0,0,0,0
20113,-441,-838,8201,-468.871,270.514,8047.643,890.293,995.304,603.628,37.571,-291.000,56.001,-4.293,30.619,-3.696,0,0,0,0,0
20213,51,-402,7519,-495.600,253.986,8035.486,845.048,996.727,605.580,-267.286,-165.286,-121.572,-452.446,14.230,19.517,0,0,0,0,0
20313,-503,-276,7432,-496.986,230.800,8025.957,844.980,989.885,609.739,-13.857,-231.857,-95.288,-0.684,-68.417,41.589,0,0,0,0,0
20413,-642,-227,7404,-501.486,211.671,8014.657,844.901,985.600,613.817,-45.000,-191.286,-112.998,-0.786,-42.851,40.784,0,0,0,0,0
20513,-641,-1009,8231,-491.286,167.257,8008.114,838.824,969.423,609.017,102.000,-444.143,-65.430,-60.773,-161.769,-48.007,0,0,0,0,0
20613,-657,-700,8207,-480.586,120.657,8003.814,831.835,930.822,606.529,107.000,-466.000,-42.998,-69.885,-386.014,-24.871,0,0,0,0,0
20713,75,-750,7633,-493.043,127.771,8008.043,816.756,922.197,602.887,-124.571,71.143,42.285,-150.793,-86.247,-36.427,0,0,0,0,0
20813,226,-791,7686,-495.857,160.929,8001.400,813.929,843.483,603.836,-28.143,331.571,-66.431,-28.268,-787.146,9.492,0,0,0,0,0
20913,-74,-1087,7941,-473.600,129.300,7985.000,803.796,848.161,589.494,222.571,-316.286,-163.999,-101.335,46.785,-143.422,0,0,0,0,0
21013,515,-1226,8455,-459.014,109.957,7999.214,812.294,863.275,588.659,145.857,-193.429,142.144,84.984,151.140,-8.351,0,0,0,0,0
21113,1112,-1207,8330,-483.429,61.600,8022.829,735.385,840.586,567.934,-244.143,-483.571,236.143,-769.091,-226.890,-207.241,0,0,0,0,0
21213,706,-1096,7942,-473.414,44.229,8025.543,746.655,851.691,567.087,100.143,-173.714,27.144,112.698,111.052,-8.474,0,0,0,0,0
21313,614,-1360,8224,-461.300,11.143,8035.357,757.245,860.568,564.486,121.143,-330.857,98.140,105.903,88.763,-26.011,0,0,0,0,0
21413,-181,-944,8119,-461.400,-13.343,8042.300,757.208,863.008,562.480,-1.000,-244.857,69.429,-0.374,24.407,-20.063,0,0,0,0,0
21513,208,-832,7835,-454.900,-31.771,8044.986,760.964,866.513,561.033,65.000,-184.286,26.860,37.561,35.044,-14.469,0,0,0,0,0
21613,-63,-539,7649,-463.371,-31.829,8049.586,753.213,866.546,556.428,-84.714,-0.571,46.001,-77.503,0.333,-46.045,0,0,0,0,0
21713,-699,-455,7559,-479.229,-38.371,8056.429,746.291,867.986,547.333,-158.571,-65.429,68.428,-69.222,14.402,-90.948,0,0,0,0,0
21813,-971,-199,7467,-480.071,-60.257,8041.128,746.812,852.305,548.625,-8.429,-218.857,-153.003,5.212,-156.816,12.920,0,0,0,0,0
21913,-646,-441,7691,-460.143,-86.757,8031.157,723.131,834.711,548.555,199.286,-265.000,-99.712,-236.817,-175.934,-0.700,0,0,0,0,0
22013,-473,-442,7701,-439.157,-112.971,8031.214,700.792,816.442,548.521,209.857,-262.143,0.571,-223.382,-182.693,-0.347,0,0,0,0,0
22113,-1029,-696,8224,-440.486,-145.057,8042.029,701.820,794.290,544.740,-13.286,-320.857,108.145,10.279,-221.516,-37.811,0,0,0,0,0
22213,-1087,-892,8246,-453.757,-171.086,8048.414,705.129,788.466,544.473,-132.714,-260.286,63.853,33.087,-58.240,-2.664,0,0,0,0,0
22313,-413,-1148,8320,-447.914,-187.629,8046.771,703.747,796.599,543.477,58.429,-165.429,-16.426,-13.824,81.331,-9.964,0,0,0,0,0
22413,61,-1270,8519,-436.186,-204.514,8046.257,705.287,806.771,543.013,117.286,-168.857,-5.142,15.407,101.719,-4.642,0,0,0,0,0
22513,-364,-1005,8454,-431.900,-223.300,8053.329,704.801,809.876,545.049,42.857,-187.857,70.713,-4.860,31.047,20.368,0,0,0,0,0
22613,-833,-1240,8693,-426.329,-227.814,8059.214,700.051,814.636,549.681,55.714,-45.143,58.857,-47.502,47.599,46.315,0,0,0,0,0
22713,-503,-991,8297,-427.157,-249.786,8062.000,700.107,814.183,550.384,-8.286,-219.714,27.856,0.559,-4.532,7.032,0,0,0,0,0
22813,-195,-731,8176,-427.314,-259.457,8063.071,700.054,815.819,550.532,-1.572,-96.714,10.713,-0.533,16.362,1.481,0,0,0,0,0
22913,159,-868,7513,-425.000,-280.571,8058.471,701.718,812.161,553.755,23.143,-211.143,-46.001,16.646,-36.580,32.224,0,0,0,0,0
23013,-687,-938,7585,-442.214,-305.643,8062.743,693.101,804.948,548.911,-172.143,-250.714,42.715,-86.170,-72.125,-48.431,0,0,0,0,0
23113,-572,-1271,8186,-446.843,-333.971,8068.971,692.871,803.529,547.800,-46.286,-283.286,62.285,-2.305,-14.196,-11.115,0,0,0,0,0
23213,-367,-1011,8806,-434.529,-359.257,8086.457,686.491,796.556,551.499,123.143,-252.857,174.858,-63.800,-69.727,36.993,0,0,0,0,0
23313,-405,-88,8062,-429.429,-366.929,8088.057,685.364,791.303,551.264,51.000,-76.714,16.001,-11.265,-52.526,-2.358,0,0,0,0,0
23413,-273,245,7693,-419.843,-369.971,8085.372,682.788,788.530,552.722,95.857,-30.429,-26.855,-25.764,-27.735,14.584,0,0,0,0,0
23513,-322,64,7907,-420.786,-375.529,8085.843,682.607,784.069,552.555,-9.428,-55.571,4.712,-1.813,-44.612,-1.665,0,0,0,0,0
23613,-202,413,8212,-418.200,-381.357,8089.657,683.087,776.634,552.492,25.857,-58.286,38.145,4.809,-74.349,-0.639,0,0,0,0,0
23713,-283,577,8139,-415.900,-384.914,8086.429,683.268,771.650,551.533,23.000,-35.571,-32.285,1.803,-49.839,-9.590,0,0,0,0,0
23813,-348,740,8177,-412.543,-380.100,8084.029,683.016,777.579,550.767,33.571,48.143,-23.999,-2.521,59.291,-7.653,0,0,0,0,0
23913,-66,716,8083,-363.929,-381.314,8084.600,576.547,775.798,550.745,486.143,-12.143,5.713,-1064.686,-17.811,-0.221,0,0,0,0,0
24013,-93,713,8287,-351.757,-378.129,8086.657,573.135,779.817,551.228,121.714,31.857,20.571,-34.124,40.189,4.830,0,0,0,0,0
24113,-127,1019,7739,-343.600,-369.457,8080.700,572.211,791.837,552.698,81.571,86.714,-59.570,-9.232,120.200,14.697,0,0,0,0,0
24213,-526,1072,8638,-340.543,-359.714,8091.800,570.655,805.204,555.967,30.572,97.429,110.996,-15.565,133.674,32.690,0,0,0,0,0
24313,140,645,7925,-329.057,-358.786,8092.872,572.118,806.324,555.572,114.857,9.286,10.718,14.634,11.199,-3.949,0,0,0,0,0
24413,-346,-19,8390,-327.443,-366.943,8105.086,571.909,799.932,552.563,16.143,-81.572,122.144,-2.095,-63.923,-30.087,0,0,0,0,0
24513,-183,-563,8253,-325.043,-381.957,8115.271,572.157,793.582,548.610,24.000,-150.143,101.855,2.486,-63.495,-39.529,0,0,0,0,0
24613,131,-559,7289,-319.943,-394.071,8110.314,574.603,789.710,554.455,51.000,-121.143,-49.570,24.460,-38.719,58.447,0,0,0,0,0
24713,-55,-300,8291,-312.843,-402.529,8117.786,574.763,785.477,553.314,71.000,-84.571,74.712,1.592,-42.338,-11.406,0,0,0,0,0
24813,-414,285,7920,-312.786,-401.829,8118.800,574.752,786.067,552.886,0.572,7.000,10.142,-0.103,5.903,-4.286,0,0,0,0,0
24913,-167,642,8153,-313.071,-414.200,8121.171,574.675,762.369,552.671,-2.857,-123.714,23.716,-0.776,-236.975,-2.145,0,0,0,0,0
25013,97,657,8030,-308.214,-390.143,8109.343,576.680,769.192,545.590,48.571,240.572,-118.286,20.051,68.224,-70.812,0,0,0,0,0
25113,190,220,8485,-297.729,-381.386,8102.257,578.966,772.592,537.383,104.857,87.571,-70.854,22.860,33.997,-82.074,0,0,0,0,0
25213,-181,73,8345,-307.586,-385.214,8100.872,570.966,769.661,536.629,-98.571,-38.286,-13.857,-80.004,-29.309,-7.533,0,0,0,0,0
25313,-473,40,8165,-307.771,-390.014,8099.257,571.017,765.937,536.264,-1.857,-48.000,-16.143,0.517,-37.234,-3.654,0,0,0,0,0
25413,-426,-178,8257,-315.214,-391.757,8097.700,569.111,765.314,535.645,-74.429,-17.429,-15.571,-19.061,-6.235,-6.190,0,0,0,0,0
25513,-431,360,8201,-317.914,-389.071,8094.457,569.206,767.614,534.321,-27.000,26.857,-32.432,0.945,23.001,-13.240,0,0,0,0,0
25613,350,307,7579,-306.943,-387.371,8086.257,574.547,769.020,537.753,109.714,17.000,-81.997,53.417,14.066,34.321,0,0,0,0,0
25713,-607,307,8691,-300.743,-390.757,8098.729,568.907,765.426,541.497,62.000,-33.857,124.712,-56.408,-35.947,37.441,0,0,0,0,0
25813,-343,997,7914,-300.843,-383.986,8104.757,568.913,775.510,537.040,-1.000,67.714,60.288,0.068,100.839,-44.577,0,0,0,0,0
25913,-550,495,8179,-308.914,-384.171,8117.343,568.383,775.298,528.237,-80.714,-1.857,125.854,-5.306,-2.121,-88.029,0,0,0,0,0
26013,132,-600,7750,-299.543,-397.371,8117.386,570.165,770.982,528.207,93.714,-132.000,0.430,17.817,-43.156,-0.298,0,0,0,0,0
26113,-896,-650,8510,-300.614,-400.700,8122.471,571.213,771.562,530.245,-10.714,-33.286,50.854,10.484,5.803,20.378,0,0,0,0,0
26213,-674,-252,8559,-300.829,-390.443,8134.128,571.350,768.693,530.744,-2.143,102.571,116.572,1.371,-28.692,4.988,0,0,0,0,0
26313,-1065,709,4651,-332.214,-385.800,8083.471,551.788,774.317,672.594,-313.857,46.429,-506.572,-195.624,56.244,1418.508,0,0,0,0,0
26413,-235,-1787,9225,-289.314,-359.343,8053.043,426.780,689.729,563.182,429.000,264.571,-304.282,-1250.072,-845.889,-1094.122,0,0,0,0,0
26513,94,-1237,8286,-287.871,-372.800,8063.486,427.902,697.488,560.622,14.429,-134.571,104.429,11.212,77.593,-25.604,0,0,0,0,0
26613,-1015,-495,7119,-287.686,-369.500,8040.743,427.583,696.354,566.157,1.857,33.000,-227.432,-3.185,-11.334,55.350,0,0,0,0,0
26713,-476,-1443,7830,-285.471,-377.029,8028.743,426.199,705.017,561.576,22.143,-75.286,-120.000,-13.846,86.628,-45.810,0,0,0,0,0
26813,-1874,2732,8918,-308.186,-324.000,8036.757,466.024,791.915,570.141,-227.143,530.286,80.146,398.251,868.979,85.651,1,0,0,0,0
26913,-1089,1426,10900,-316.771,-289.743,8074.429,474.713,814.683,663.345,-85.857,342.571,376.714,86.890,227.675,932.043,0,0,0,0,0
27013,-135,867,4892,-306.571,-267.600,8026.986,470.822,824.696,763.011,102.000,221.429,-474.429,-38.906,100.132,996.655,0,0,0,0,0
27113,1057,-1641,5747,-285.171,-279.071,7991.929,497.513,838.027,809.188,214.000,-114.714,-350.571,266.909,133.315,461.776,0,0,0,0,0
27213,289,-1414,9225,-281.771,-293.529,8016.300,500.602,848.685,820.194,34.000,-144.571,243.711,30.894,106.575,110.052,0,0,0,0,0
27313,-1213,1260,9725,-291.914,-271.586,8049.057,512.044,868.480,841.711,-101.429,219.428,327.573,114.416,197.954,215.170,0,0,0,0,0
27413,208,798,8645,-279.771,-256.943,8066.786,513.674,877.700,841.006,121.429,146.429,177.285,16.301,92.202,-7.042,0,0,0,0,0
27513,-335,964,7041,-275.400,-228.757,8049.786,511.880,884.748,849.499,43.714,281.857,-170.000,-17.938,70.478,84.932,0,0,0,0,0
27613,424,39,6810,-259.957,-218.200,8029.829,516.421,883.470,861.891,154.428,105.571,-199.570,45.407,-12.778,123.915,0,0,0,0,0
27713,-205,799,6219,-263.957,-196.071,8009.628,514.893,889.253,887.154,-40.000,221.286,-202.002,-15.277,57.829,252.632,0,0,0,0,0
27813,1380,-2247,11750,-247.471,-216.871,8067.686,547.743,919.441,990.979,164.857,-208.000,580.571,328.497,301.881,1038.243,0,0,0,0,1
27913,-543,1048,7882,-254.171,-186.371,8066.843,548.448,925.463,991.111,-67.000,305.000,-8.428,7.050,60.217,1.324,0,0,0,0,0
28013,489,145,8496,-254.543,-166.786,8067.429,547.936,917.729,991.352,-3.714,195.857,5.859,-5.125,-77.341,2.413,0,0,0,0,0
28113,-855,1093,7062,-282.643,-133.929,8049.314,527.178,921.065,997.952,-281.000,328.571,-181.143,-207.574,33.364,65.994,0,0,0,0,0
28213,-352,171,8807,-297.757,-115.829,8061.671,513.609,914.407,1001.894,-151.143,181.000,123.569,-135.694,-66.588,39.423,0,0,0,0,0
28313,-363,538,8029,-311.714,-88.714,8058.886,501.781,905.206,1001.710,-139.572,271.143,-27.856,-118.277,-92.007,-1.840,0,0,0,0,0
28413,-723,673,8694,-319.457,-65.614,8067.100,503.882,903.716,1004.523,-77.429,231.000,82.144,21.006,-14.901,28.127,0,0,0,0,0
28513,-778,275,7579,-333.543,-49.800,8063.443,502.720,899.844,1005.826,-140.857,158.143,-36.572,-11.615,-38.719,13.036,0,0,0,0,0
28613,-303,522,6711,-336.971,-34.643,8050.043,501.681,900.412,1017.440,-34.286,151.571,-133.999,-10.395,5.679,116.133,0,0,0,0,0
28713,-662,439,8131,-336.443,-21.871,8058.214,501.318,900.699,1015.758,5.286,127.714,81.714,-3.624,2.872,-16.810,0,0,0,0,0
28813,5,5,8959,-322.500,-18.957,8079.529,497.030,900.451,1018.778,139.429,29.143,213.145,-42.884,-2.479,30.200,0,0,0,0,0
28913,-671,1001,7467,-322.857,1.643,8076.329,497.271,907.031,1020.344,-3.571,206.000,-32.002,2.413,65.798,15.659,0,0,0,0,0
29013,-128,-881,7604,-317.929,-4.629,8074.943,497.468,911.583,1020.919,49.286,-62.714,-13.857,1.971,45.519,5.745,0,0,0,0,0
29113,-851,-1443,8725,-315.386,-15.300,8082.100,494.272,923.903,1023.691,25.428,-106.714,71.572,-31.965,123.203,27.722,0,0,0,0,0
29213,-185,-1801,9645,-302.500,-28.286,8102.086,485.670,942.338,1040.219,128.857,-129.857,199.858,-86.013,184.352,165.278,0,0,0,0,0
29313,1,-1414,7856,-296.586,-32.086,8095.457,486.808,947.369,1040.287,59.143,-38.000,-66.289,11.379,50.305,0.686,0,0,0,0,0
29413,-1448,-696,8506,-318.143,-23.886,8095.271,503.617,939.066,1040.213,-215.571,82.000,-1.855,168.089,-83.026,-0.745,0,0,0,0,0
29513,443,-1026,7652,-306.614,-24.186,8083.814,511.609,939.383,1040.615,115.286,-3.000,-114.570,79.916,3.167,4.025,0,0,0,0,0
29613,-1365,-716,8502,-314.214,-16.700,8081.086,523.192,931.721,1039.264,-76.000,74.857,-27.285,115.834,-76.616,-13.514,0,0,0,0,0
29713,192,-819,7506,-304.286,-14.243,8069.786,526.102,929.372,1041.154,99.286,24.571,-113.003,29.097,-23.489,18.895,0,0,0,0,0
29813,-219,-1057,7810,-304.629,-18.900,8064.557,526.038,933.759,1041.526,-3.429,-46.571,-52.285,-0.635,43.864,3.724,0,0,0,0,0
29913,-810,-862,7955,-318.471,-18.814,8070.872,526.405,933.681,1039.501,-138.429,0.857,63.145,3.669,-0.777,-20.251,0,0,0,0,0
30013,38,-969,8028,-308.114,-19.257,8077.200,526.185,934.124,1037.871,103.571,-4.429,63.286,-2.205,4.432,-16.301,0,0,0,0,0
30113,300,-788,6751,-295.657,-12.357,8056.700,530.098,926.606,1049.625,124.572,69.000,-205.000,39.127,-75.181,117.540,0,0,0,0,0
30213,-1120,-1607,8040,-306.414,-20.871,8045.757,539.002,938.406,1045.742,-107.571,-85.143,-109.429,89.041,118.002,-38.829,0,0,0,0,0
30313,-230,-1508,6998,-303.914,-41.157,8030.557,538.944,954.843,1053.102,25.000,-202.857,-152.002,-0.573,164.363,73.601,0,0,0,0,0
30413,-1067,-1977,8379,-315.257,-72.900,8040.357,546.477,981.368,1053.107,-113.429,-317.429,97.998,75.329,265.250,0.051,0,0,0,0,0
30513,-1229,-2197,8388,-328.214,-105.200,8047.229,557.132,1013.028,1053.783,-129.572,-323.000,68.716,106.549,316.603,6.764,0,0,0,0,0
30613,-1222,-2816,8011,-342.786,-151.329,8044.357,566.894,1060.773,1053.604,-145.714,-461.286,-28.716,97.617,477.450,-1.792,0,0,0,0,0
30713,-482,-2833,7686,-345.629,-200.043,8037.886,567.086,1103.640,1054.394,-28.429,-487.143,-64.712,1.920,428.674,7.897,0,0,0,0,0
30813,-454,-2528,6704,-347.143,-246.729,8016.843,567.232,1131.653,1066.042,-15.143,-466.857,-210.430,1.459,280.125,116.482,0,0,0,0,0
30913,-357,-2485,6733,-351.300,-292.457,7997.557,566.221,1156.234,1076.828,-41.571,-457.286,-192.856,-10.103,245.808,107.854,0,0,0,0,0
31013,-572,-3248,7824,-358.143,-349.043,7990.943,565.953,1201.674,1076.451,-68.429,-565.857,-66.143,-2.686,454.406,-3.762,0,0,0,0,0
31113,-214,-2912,9259,-359.386,-405.200,8012.657,565.539,1227.995,1086.434,-12.429,-561.572,217.144,-4.136,263.203,99.832,0,0,0,0,0
31213,-880,-2928,8254,-364.443,-462.343,8007.171,568.581,1250.781,1084.230,-50.572,-571.429,-54.858,30.419,227.867,-22.040,0,0,0,0,0
31313,210,-3305,7410,-363.443,-518.771,7999.814,569.528,1288.096,1086.508,10.000,-564.286,-73.569,9.470,373.143,22.775,0,0,0,0,0
31413,-131,-3216,8395,-360.371,-564.443,7999.886,570.193,1325.694,1086.534,30.714,-456.714,0.713,6.652,375.989,0.258,0,0,0,0,0
31513,40,-2754,7398,-357.186,-595.743,7987.671,571.796,1350.916,1088.424,31.857,-313.000,-122.144,16.028,252.216,18.901,0,0,0,0,0
31613,-687,-2720,7384,-368.871,-626.614,7989.029,570.056,1374.215,1087.610,-116.857,-308.714,13.574,-17.403,232.986,-8.134,0,0,0,0,0
31713,524,-3064,7747,-360.600,-666.100,7981.257,578.685,1403.656,1087.369,82.714,-394.857,-77.715,86.295,294.419,-2.416,0,0,0,0,0
31813,-1194,-3022,8248,-371.743,-713.343,7985.943,587.055,1426.319,1087.801,-111.429,-472.429,46.855,83.701,226.628,4.324,0,0,0,0,0
31913,-249,-2992,7428,-372.914,-765.257,7975.586,586.727,1442.090,1089.611,-11.714,-519.143,-103.569,-3.281,157.710,18.101,0,0,0,0,0
32013,-236,-3240,8334,-377.671,-820.929,7979.929,584.243,1461.205,1090.425,-47.571,-556.714,43.428,-24.846,191.143,8.137,0,0,0,0,0
32113,-179,-2998,7618,-382.943,-866.900,7967.543,580.751,1478.254,1089.542,-52.715,-459.714,-123.857,-34.915,170.497,-8.835,0,0,0,0,0
32213,210,-2815,7401,-377.357,-908.157,7954.057,584.535,1491.687,1090.628,55.857,-412.571,-134.858,37.834,134.323,10.861,0,0,0,0,0
32313,-1139,-2796,8040,-386.871,-948.671,7952.271,591.394,1503.848,1090.383,-95.143,-405.143,-17.856,68.592,121.613,-2.444,0,0,0,0,0
32413,527,-2554,7096,-373.257,-982.614,7935.686,601.224,1512.857,1094.444,136.143,-339.428,-165.859,98.301,90.092,40.610,0,0,0,0,0
32513,-652,-2346,7849,-376.414,-1021.271,7930.657,602.099,1512.629,1094.022,-31.571,-386.572,-50.283,8.746,-2.283,-4.222,0,0,0,0,0
32613,337,-2571,7728,-376.600,-1062.386,7932.786,601.876,1515.078,1093.481,-1.857,-411.143,21.284,-2.221,24.489,-5.413,0,0,0,0,0
32713,-1269,-2542,7904,-386.057,-1103.086,7921.543,610.561,1516.011,1089.666,-94.571,-407.000,-112.427,86.841,9.336,-38.146,0,0,0,0,0
32813,-1,-2464,7945,-381.171,-1152.529,7921.986,612.252,1503.096,1089.670,48.857,-494.429,4.429,16.910,-129.152,0.034,0,0,0,0,0
32913,-459,-2108,7558,-379.871,-1189.714,7913.114,611.988,1494.049,1090.069,13.000,-371.857,-88.716,-2.633,-90.474,3.993,0,0,0,0,0
33013,-20,-2201,7447,-382.043,-1212.586,7908.786,610.436,1497.097,1091.309,-21.714,-228.715,-43.286,-15.524,30.486,12.400,0,0,0,0,0
33113,-242,-2557,7914,-372.700,-1239.829,7900.271,607.496,1503.947,1088.907,93.428,-272.429,-85.142,-29.401,68.501,-24.014,0,0,0,0,0
33213,-1087,-2431,8339,-378.600,-1270.957,7897.128,612.379,1505.728,1087.318,-59.000,-311.285,-31.431,48.835,17.809,-15.896,0,0,0,0,0
33313,142,-1156,8073,-361.357,-1297.600,7946.014,609.797,1486.840,1014.780,172.429,-266.428,488.857,-25.825,-188.881,-725.380,0,0,0,0,0
33413,-592,-650,7762,-366.457,-1281.357,7925.114,610.212,1487.615,1003.223,-51.000,162.428,-208.999,4.147,7.751,-115.567,0,0,0,0,0
33513,397,-822,7490,-362.129,-1275.429,7913.743,614.522,1488.607,1003.579,43.286,59.286,-113.716,43.104,9.917,3.561,0,0,0,0,0
33613,-888,-743,8015,-360.314,-1278.971,7926.543,612.777,1487.040,999.065,18.143,-35.428,128.003,-17.452,-15.674,-45.143,0,0,0,0,0
33713,-576,-928,8261,-361.743,-1271.614,7932.700,613.161,1487.483,999.779,-14.286,73.572,61.572,3.845,4.438,7.141,0,0,0,0,0
33813,-86,-243,7565,-336.200,-1314.114,7913.372,586.285,1413.129,993.603,255.428,-425.000,-193.286,-268.761,-743.549,-61.761,0,0,0,0,0
33913,-630,-393,7439,-329.643,-1340.100,7863.929,580.366,1378.810,927.680,65.572,-259.857,-494.429,-59.193,-343.185,-659.234,0,0,0,0,0
34013,-292,-153,7448,-331.886,-1354.671,7900.443,579.913,1360.679,857.643,-22.429,-145.714,365.142,-4.533,-181.315,-700.369,0,0,0,0,0
34113,-314,-423,8015,-351.471,-1337.271,7932.843,555.304,1364.688,817.582,-195.857,173.999,323.999,-246.088,40.090,-400.602,0,0,0,0,0
34213,-166,-466,7790,-357.971,-1323.729,7912.343,550.410,1368.557,802.783,-65.000,135.430,-205.000,-48.935,38.699,-147.999,0,0,0,0,0
34313,-525,-154,8126,-348.143,-1343.929,7889.500,541.119,1340.418,773.079,98.286,-202.001,-228.428,-92.916,-281.390,-297.032,0,0,0,0,0
34413,-554,-285,8332,-359.029,-1359.400,7885.029,537.474,1321.726,769.594,-108.857,-154.714,-44.712,-36.451,-186.923,-34.854,0,0,0,0,0
34513,-216,776,7727,-357.329,-1362.086,7894.829,537.735,1317.186,763.124,17.000,-26.857,97.998,2.615,-45.405,-64.698,0,0,0,0,0
34613,-603,618,8113,-372.000,-1353.814,7913.443,530.174,1327.734,752.250,-146.714,82.714,186.143,-75.607,105.481,-108.743,0,0,0,0,0
34713,-358,812,8453,-374.186,-1353.629,7945.357,529.797,1328.036,726.639,-21.857,1.858,319.141,-3.777,3.020,-256.110,0,0,0,0,0
34813,-157,778,8210,-396.143,-1310.414,7894.786,486.741,1347.339,565.382,-219.572,432.142,-505.713,-430.558,193.030,-1612.568,0,0,0,0,0
34913,-218,1037,8040,-391.500,-1310.571,7897.043,486.868,1347.064,565.642,46.429,-1.571,22.573,1.268,-2.745,2.597,0,0,0,0,0
35013,-751,1186,7671,-409.214,-1295.700,7885.257,476.967,1368.625,561.620,-177.143,148.715,-117.856,-99.008,215.610,-40.219,0,0,0,0,0
35113,-331,1200,7816,-401.729,-1294.171,7896.029,474.015,1371.349,552.890,74.857,15.286,107.715,-29.522,27.239,-87.302,0,0,0,0,0
35213,-219,1357,7766,-399.829,-1277.229,7881.157,474.476,1396.443,542.081,19.000,169.429,-148.716,4.618,250.944,-108.083,0,0,0,0,0
35313,111,1977,8226,-393.057,-1256.671,7883.971,478.320,1433.124,543.351,67.715,205.571,28.140,38.440,366.808,12.700,0,0,0,0,0
35413,-370,1932,8030,-388.014,-1238.686,7874.486,476.673,1464.780,534.857,50.428,179.857,-94.854,-16.471,316.553,-84.944,0,0,0,0,0
35513,-336,1160,7353,-381.700,-1226.043,7871.257,474.388,1481.514,537.307,63.143,126.428,-32.285,-22.858,167.340,24.503,0,0,0,0,0
35613,205,237,7672,-374.443,-1230.114,7884.986,479.395,1477.089,519.467,72.571,-40.714,137.285,50.077,-44.243,-178.398,0,0,0,0,0
35713,-620,-2,7905,-373.843,-1236.414,7881.757,479.061,1470.884,518.630,6.000,-63.000,-32.285,-3.340,-62.052,-8.373,0,0,0,0,0
35813,-184,-216,7983,-376.543,-1239.571,7867.814,477.448,1468.451,502.346,-27.000,-31.571,-139.429,-16.129,-24.329,-162.843,0,0,0,0,0
35913,-122,328,7477,-368.700,-1249.186,7867.957,477.056,1455.900,502.233,78.428,-96.143,1.426,-3.924,-125.514,-1.126,0,0,0,0,0
36013,-487,984,8264,-373.829,-1222.543,7877.386,476.370,1479.271,503.383,-51.286,266.428,94.287,-6.859,233.712,11.500,0,0,0,0,0
36113,-449,1582,7739,-368.086,-1179.329,7863.300,472.994,1515.930,493.159,57.429,432.142,-140.859,-33.760,366.591,-102.238,0,0,0,0,0
36213,-287,1235,7797,-369.543,-1135.957,7836.900,472.585,1540.751,444.098,-14.571,433.715,-263.999,-4.093,248.208,-490.618,0,0,0,0,0
36313,-805,880,8134,-381.057,-1103.186,7840.872,473.235,1558.779,445.492,-115.143,327.715,39.717,6.502,180.284,13.940,0,0,0,0,0
36413,30,523,8244,-359.943,-1085.771,7837.128,457.883,1570.000,440.965,211.143,174.142,-37.432,-153.518,112.207,-45.264,0,0,0,0,0
36513,-788,98,8497,-377.529,-1069.714,7849.200,450.283,1576.265,447.253,-175.857,160.573,120.718,-75.999,62.645,62.881,0,0,0,0,0
36613,3,249,8369,-357.986,-1055.929,7847.300,436.476,1583.501,444.751,195.428,137.856,-19.004,-138.068,72.366,-25.019,0,0,0,0,0
36713,-982,983,8580,-374.757,-1030.186,7862.643,437.575,1601.687,451.191,-167.714,257.429,153.433,10.986,181.855,64.400,0,0,0,0,0
36813,509,776,7851,-364.357,-1004.000,7863.229,449.638,1615.954,451.149,104.000,261.857,5.854,120.634,142.673,-0.421,0,0,0,0,0
36913,-697,197,7567,-362.743,-988.871,7857.686,448.236,1622.158,452.370,16.143,151.286,-55.430,-14.022,62.039,12.203,0,0,0,0,0
37013,-310,-68,7826,-367.714,-976.000,7854.800,445.686,1625.835,451.918,-49.714,128.714,-28.857,-25.496,36.774,-4.516,0,0,0,0,0
37113,-746,625,5556,-382.657,-955.814,7837.729,440.554,1636.779,511.884,-149.428,201.857,-170.713,-51.321,109.434,599.664,0,0,0,0,0
37213,-188,-2885,11216,-369.343,-974.071,7883.100,432.071,1651.006,649.940,133.143,-182.571,453.716,-84.832,142.275,1380.552,0,0,0,0,1
37313,-235,44,6280,-369.414,-951.900,7872.843,432.048,1654.105,669.207,-0.714,221.714,-102.573,-0.226,30.990,192.675,0,0,0,0,0
37413,-268,-451,7828,-358.000,-930.100,7864.971,423.947,1650.503,666.442,114.143,218.000,-78.716,-81.018,-36.018,-27.650,0,0,0,0,0
37513,-202,-1089,9779,-343.329,-914.271,7884.843,411.127,1643.576,701.554,146.714,158.286,198.716,-128.196,-69.271,351.119,0,0,0,0,0
37613,-162,2276,8020,-328.186,-841.529,7884.971,397.789,1670.264,701.578,151.429,727.429,1.284,-133.376,266.882,0.239,0,0,0,0,0
37713,-246,1076,8489,-324.814,-785.686,7896.443,397.471,1668.094,704.788,33.714,558.428,114.717,-3.180,-21.709,32.104,0,0,0,0,0
37813,187,109,7420,-315.657,-748.014,7906.671,401.750,1658.067,692.497,91.572,376.714,102.285,42.791,-100.267,-122.916,0,0,0,0,0
37913,-650,-274,8530,-319.843,-716.429,7932.343,403.681,1645.690,681.736,-41.857,315.857,256.714,19.307,-123.768,-107.603,0,0,0,0,0
38013,-99,541,9714,-313.086,-662.300,7959.343,403.362,1623.699,713.593,67.571,541.286,270.000,-3.188,-219.911,318.566,0,0,0,0,0
38113,-163,1465,8289,-312.357,-599.771,7945.486,403.587,1620.134,697.456,7.286,625.286,-138.569,2.244,-35.647,-161.367,0,0,0,0,0
38213,180,1105,7906,-297.214,-542.157,7940.514,401.887,1607.979,696.479,151.429,576.143,-49.717,-17.001,-121.554,-9.772,0,0,0,0,0
38313,131,370,7846,-298.343,-489.657,7946.743,400.569,1576.603,693.651,-11.286,525.000,62.285,-13.171,-313.755,-28.284,0,0,0,0,0
38413,-621,799,8001,-305.343,-432.300,7941.114,401.863,1549.170,691.586,-70.000,573.571,-56.284,12.938,-274.337,-20.648,0,0,0,0,0
38513,15,696,8672,-305.700,-383.014,7959.314,401.567,1529.274,693.814,-3.571,492.857,182.002,-2.961,-198.953,22.277,0,0,0,0,0
38613,-262,746,8444,-299.629,-333.500,7974.457,398.961,1508.780,692.658,60.714,495.143,151.426,-26.065,-204.943,-11.552,0,0,0,0,0
38713,-361,1124,7495,-312.271,-273.671,7970.857,386.488,1482.118,694.484,-126.429,598.286,-36.001,-124.731,-266.616,18.253,0,0,0,0,0
38813,-288,994,7998,-299.329,-216.300,7967.286,371.628,1452.046,693.691,129.428,573.714,-35.713,-148.599,-300.729,-7.922,0,0,0,0,0
38913,-147,1247,6841,-297.871,-155.743,7958.900,372.022,1423.128,703.637,14.572,605.571,-83.857,3.943,-289.175,99.453,0,0,0,0,0
39013,73,272,8202,-293.457,-105.571,7957.014,374.555,1374.589,702.805,44.143,501.714,-18.857,25.326,-485.389,-8.314,0,0,0,0,0
39113,-996,904,9833,-305.129,-49.829,7988.657,383.430,1334.703,735.913,-116.714,557.429,316.431,88.756,-398.859,331.079,0,0,0,0,0
39213,-489,819,8333,-315.114,2.086,8001.971,378.961,1296.260,733.588,-99.857,519.143,133.140,-44.696,-384.430,-23.252,0,0,0,0,0
39313,-5,665,7432,-298.914,51.529,7993.286,367.458,1253.905,736.679,162.000,494.429,-86.855,-115.023,-423.557,30.911,0,0,0,0,0
39413,-1403,1496,8127,-326.486,109.386,8008.014,376.743,1225.461,728.857,-275.714,578.571,147.285,92.844,-284.440,-78.219,0,0,0,0,0
39513,1078,-37,7820,-301.771,142.371,8007.600,409.866,1189.472,728.956,247.143,329.857,-4.141,331.234,-359.882,0.985,0,0,0,0,0
39613,-734,1717,8599,-317.071,203.629,8020.043,405.704,1158.160,731.506,-153.000,612.571,124.429,-41.617,-313.120,25.505,0,0,0,0,0
39713,-1183,244,9503,-315.843,243.429,8042.886,402.941,1109.992,752.199,12.286,398.000,228.428,-27.637,-481.683,206.930,0,0,0,0,0
39813,733,994,8224,-305.357,292.829,8046.872,420.179,1064.412,752.409,104.857,494.000,39.858,172.384,-455.798,2.100,0,0,0,0,0
39913,-170,429,7928,-301.229,329.071,8052.157,420.069,1024.491,750.253,41.286,362.429,52.856,-1.101,-399.210,-21.564,0,0,0,0,0
40013,13,1214,7593,-300.757,377.857,8054.243,420.403,983.332,748.769,4.714,487.857,20.854,3.337,-411.589,-14.839,0,0,0,0,0
40113,-736,-1435,8932,-307.814,393.886,8068.786,423.492,943.709,755.758,-70.572,160.286,145.430,30.894,-396.233,69.885,0,0,0,0,0
40213,-1466,-919,9634,-313.229,415.486,8087.286,435.667,894.843,777.678,-54.143,216.000,185.000,121.749,-488.658,219.202,0,0,0,0,0
40313,1358,-1024,8951,-295.857,417.371,8099.829,475.861,891.663,784.397,173.714,18.857,125.430,401.938,-31.802,67.197,0,0,0,0,0
40413,434,-1167,7732,-281.200,409.986,8099.400,482.271,902.548,784.590,146.571,-73.857,-4.287,64.106,108.853,1.926,0,0,0,0,0
40513,434,-1009,8887,-280.671,407.314,8119.357,483.034,906.459,786.600,5.286,-26.714,199.570,7.627,39.108,20.101,0,0,0,0,0
40613,-486,-97,7449,-274.929,416.543,8111.271,478.144,897.949,790.531,57.429,92.285,-80.854,-48.898,-85.096,39.304,0,0,0,0,0
40713,-796,-295,7740,-278.071,425.586,8103.829,480.828,887.490,791.538,-31.429,90.429,-74.429,26.841,-104.594,10.072,0,0,0,0,0
40813,-480,-1318,9690,-283.700,410.229,8134.186,480.853,907.990,810.805,-56.286,-153.571,303.569,0.247,205.004,192.673,0,0,0,0,0
40913,-1075,797,10634,-290.057,427.229,8179.829,488.274,903.924,858.889,-63.571,170.000,456.431,74.206,-40.668,480.837,0,0,0,0,0
41013,-1104,2672,6544,-301.657,467.586,8166.914,497.736,939.481,876.413,-116.000,403.571,-129.146,94.621,355.578,175.243,0,0,0,0,0
41113,-151,511,8101,-299.329,480.929,8168.143,498.054,933.351,876.259,23.286,133.428,12.290,3.180,-61.307,-1.536,0,0,0,0,0
41213,189,693,7133,-294.257,497.486,8158.757,501.183,926.662,883.746,50.714,165.572,-93.857,31.293,-66.888,74.866,0,0,0,0,0
41313,1419,-151,10082,-266.486,497.529,8186.700,539.986,926.632,912.717,277.714,0.428,279.429,388.029,-0.300,289.707,0,0,0,0,0
41413,1219,-452,11077,-241.157,495.143,8225.914,566.821,928.856,974.963,253.286,-23.857,392.139,268.351,22.239,622.464,0,0,0,0,0
41513,1229,-660,8820,-220.514,474.629,8241.528,593.066,938.236,975.600,206.429,-205.143,156.143,262.452,93.806,6.370,0,0,0,0,0
41613,-1528,1167,8384,-233.729,482.471,8245.400,611.461,941.690,975.620,-132.143,78.429,38.721,183.949,34.540,0.198,0,0,0,0,0
41713,1326,330,6794,-209.671,475.586,8221.700,638.623,941.018,990.329,240.571,-68.857,-237.002,271.616,-6.728,147.087,0,0,0,0,0
41813,-176,26,8504,-209.943,464.843,8225.900,638.604,941.796,990.893,-2.714,-107.429,42.002,-0.184,7.784,5.647,0,0,0,0,0
41913,-776,962,6391,-217.914,463.771,8202.343,642.128,941.187,1014.356,-79.714,-10.714,-235.576,35.237,-6.091,234.631,0,0,0,0,0
42013,-466,1552,7148,-213.843,469.000,8194.871,639.634,946.188,1020.152,40.714,52.286,-74.717,-24.943,50.009,57.958,0,0,0,0,0
42113,-1600,61,9599,-231.971,452.729,8220.343,660.345,943.266,1032.558,-181.286,-162.714,254.717,207.113,-29.214,124.060,0,0,0,0,0
42213,-535,481,7433,-236.486,440.214,8215.586,661.320,936.976,1035.404,-45.143,-125.143,-47.568,9.753,-62.900,28.453,0,0,0,0,0
42313,1463,-109,7633,-217.171,410.414,8207.114,690.295,920.656,1037.707,193.143,-298.000,-84.717,289.748,-163.206,23.035,0,0,0,0,0
42413,-1784,674,9778,-237.371,392.443,8232.086,714.728,902.885,1054.048,-202.000,-179.714,249.717,244.330,-177.703,163.408,0,0,0,0,0
42513,-1206,1043,6736,-249.800,390.771,8223.271,723.842,901.570,1063.896,-124.286,-16.714,-88.145,91.133,-13.152,98.483,0,0,0,0,0
42613,1008,-68,7452,-238.329,386.414,8220.129,737.198,903.039,1065.843,114.714,-43.571,-31.426,133.564,14.684,19.469,0,0,0,0,0
42713,-2520,745,9910,-265.471,397.086,8248.771,784.229,902.799,1083.779,-271.429,106.714,286.426,470.309,-2.394,179.362,0,0,0,0,0
42813,-1969,261,9407,-290.971,403.900,8269.114,809.770,899.942,1091.934,-255.000,68.143,203.428,255.409,-28.576,81.544,0,0,0,0,0
42913,-1070,1725,8376,-304.514,423.857,8281.957,814.743,913.426,1087.821,-135.428,199.572,128.428,49.728,134.844,-41.130,0,0,0,0,0
43013,758,5,6559,-286.729,409.871,8257.600,824.100,912.237,1106.871,177.857,-139.857,-243.574,93.576,-11.895,190.507,0,0,0,0,0
43113,-1230,-27,7384,-297.886,386.886,8252.528,831.476,902.633,1110.044,-111.571,-229.857,-50.713,73.753,-96.033,31.732,0,0,0,0,0
43213,1032,591,6758,-279.043,377.686,8237.686,846.322,897.208,1122.908,188.429,-92.000,-148.428,148.461,-54.254,128.638,0,0,0,0,0
43313,-1788,2492,6639,-293.086,400.714,8216.328,862.925,929.897,1138.782,-140.429,230.286,-213.574,166.031,326.893,158.737,0,0,0,0,0
43413,-1564,1885,8694,-315.857,420.171,8222.757,875.045,946.356,1140.189,-227.714,194.571,64.287,121.204,164.588,14.076,0,0,0,0,0
43513,709,382,6397,-294.471,424.229,8192.757,881.514,945.575,1160.033,213.857,40.572,-300.000,64.689,-7.815,198.439,0,0,0,0,0
43613,-667,857,6655,-304.043,432.914,8168.271,881.869,946.717,1174.059,-95.714,86.857,-244.854,3.555,11.422,140.259,0,0,0,0,0
43713,-929,524,9973,-303.286,426.357,8188.171,881.310,944.471,1192.530,7.571,-65.571,198.999,-5.598,-22.458,184.705,0,0,0,0,0
43813,-1095,1445,7496,-326.200,435.914,8183.100,880.744,951.321,1194.705,-229.143,95.571,-50.713,-5.656,68.497,21.758,0,0,0,0,0
43913,365,728,7288,-311.029,443.500,8179.114,883.369,951.503,1197.217,151.714,75.857,-39.858,26.249,1.820,25.116,0,0,0,0,0
44013,1233,531,6315,-288.986,452.057,8157.529,902.171,949.555,1216.850,220.428,85.571,-215.854,188.019,-19.473,196.327,0,0,0,0,0
44113,-353,409,9424,-283.371,448.971,8212.786,900.531,949.339,1184.862,56.143,-30.857,552.573,-16.402,-2.162,-319.875,0,0,0,0,0
44213,339,280,9557,-275.843,494.186,8189.086,903.495,860.708,1140.308,75.286,452.143,-237.002,29.639,-886.315,-445.541,0,0,0,0,0
44313,252,-99,10468,-268.886,492.143,8248.914,905.655,861.942,1148.412,69.572,-20.428,598.281,21.601,12.349,81.036,0,0,0,0,0
44413,-2137,935,9243,-295.586,511.943,8269.129,932.391,855.948,1153.268,-267.000,198.000,202.148,267.362,-59.944,48.563,0,0,0,0,0
44513,-233,620,5726,-296.029,536.357,8211.229,932.354,834.028,1177.497,-4.428,244.142,-579.004,-0.372,-219.197,242.294,0,0,0,0,0
44613,149,900,7325,-291.586,516.700,8201.300,933.722,808.624,1181.990,44.428,-196.571,-99.287,13.681,-254.045,44.921,0,0,0,0,0
44713,1949,16,8566,-260.229,501.557,8202.400,970.846,807.933,1182.293,313.571,-151.429,11.006,371.237,-6.909,3.032,0,0,0,0,0
44813,1709,1477,7141,-238.486,521.100,8198.414,997.301,814.718,1185.390,217.429,195.428,-39.863,264.553,67.848,30.970,0,0,0,0,0
44913,-2351,1928,6506,-262.786,552.557,8169.500,1027.303,825.846,1201.524,-243.000,314.572,-289.141,300.026,111.279,161.345,0,0,0,0,0
45013,33,104,6104,-260.900,546.314,8117.929,1027.723,827.559,1211.557,18.857,-62.429,-515.713,4.199,17.136,100.322,0,0,0,0,0
45113,2339,855,7338,-225.157,537.600,8104.343,1073.017,821.026,1214.889,357.428,-87.143,-135.859,452.933,-65.337,33.329,0,0,0,0,0
45213,393,-96,10890,-222.114,520.443,8146.971,1074.462,821.538,1258.742,30.429,-171.571,426.284,14.456,5.122,438.530,0,0,0,0,0
45313,-180,447,7770,-226.557,521.543,8145.886,1073.636,821.387,1259.034,-44.429,11.000,-10.854,-8.267,-1.507,2.919,0,0,0,0,0
45413,213,277,7813,-214.643,514.086,8143.200,1073.820,821.204,1259.541,119.143,-74.572,-26.855,1.843,-1.832,5.066,0,0,0,0,0
45513,-1353,274,9325,-234.186,508.057,8152.529,1081.881,821.395,1265.825,-195.429,-60.286,93.286,80.609,1.915,62.845,0,0,0,0,0
45613,-3736,1867,7720,-283.814,524.071,8142.186,1158.954,836.664,1266.359,-496.286,160.143,-103.433,770.729,152.687,5.338,0,0,0,1,0
45713,-301,-221,8567,-282.957,504.857,8157.500,1158.919,838.109,1264.921,8.571,-192.143,153.145,-0.352,14.447,-14.379,0,0,0,0,0
45813,-227,1978,4998,-282.086,518.914,8114.643,1158.937,854.291,1319.254,8.714,140.572,-428.569,0.188,161.821,543.330,0,0,0,0,0
45913,1282,393,6790,-261.671,506.714,8113.914,1173.630,849.893,1319.971,204.143,-122.000,-7.290,146.921,-43.983,7.170,0,0,0,0,0
46013,265,197,10089,-258.929,505.643,8140.872,1174.632,850.235,1340.603,27.429,-10.714,269.575,10.029,3.426,206.311,0,0,0,0,0
46113,802,1356,4795,-233.243,512.100,8068.900,1177.888,854.939,1382.410,256.857,64.571,-719.717,32.555,47.042,418.075,0,0,0,0,0
46213,-2708,1775,4572,-264.943,525.757,8015.171,1213.661,867.279,1442.867,-317.000,136.572,-537.285,357.729,123.400,604.568,0,0,0,0,0
46313,-2790,1548,5718,-304.729,538.371,7990.686,1249.603,875.594,1466.899,-397.857,126.143,-244.858,359.425,83.152,240.320,0,0,0,0,0
46413,5002,-1712,16233,-213.229,492.543,8106.486,1392.196,907.640,1763.130,915.000,-458.286,1158.003,1425.928,320.453,2962.312,0,0,0,0,1
46513,-2015,924,6256,-257.414,506.271,8084.143,1399.577,906.794,1776.478,-441.857,137.286,-223.428,73.811,-8.459,133.481,0,0,0,0,0
46613,-721,3434,1731,-257.229,530.800,7986.029,1399.515,960.825,1928.488,1.857,245.286,-981.143,-0.625,540.308,1520.101,1,0,0,0,0
46713,1297,299,8877,-221.800,531.586,7977.086,1407.001,960.612,1922.876,354.286,7.857,-89.429,74.863,-2.125,-56.118,0,0,0,0,0
46813,1813,-977,8602,-206.371,503.429,7982.486,1423.214,975.418,1924.093,154.286,-281.571,53.999,162.134,148.057,12.161,0,0,0,0,0
46913,656,-816,7716,-194.571,485.643,7979.457,1426.886,987.884,1924.343,118.000,-177.857,-30.288,36.720,124.659,2.501,0,0,0,0,0
47013,2856,-155,6002,-153.957,466.086,7956.729,1471.966,986.821,1938.119,406.143,-195.571,-227.285,450.793,-10.625,137.767,0,0,0,0,0
47113,-1169,1044,6787,-160.143,501.500,7926.086,1475.305,962.135,1939.414,-61.857,354.143,-306.426,33.389,-246.864,12.947,0,0,0,0,0
47213,-119,-1186,9436,-140.900,497.686,7923.257,1466.907,968.268,1937.064,192.429,-38.143,-28.286,-83.973,61.334,-23.502,0,0,0,0,0
47313,2040,685,4378,-131.157,522.100,7857.929,1479.045,950.983,1977.983,97.428,244.143,-653.286,121.375,-172.848,409.187,0,0,0,0,0
47413,20,-316,8907,-137.071,534.257,7874.714,1477.600,934.611,1981.824,-59.143,121.572,167.856,-14.446,-163.721,38.419,0,0,0,0,0
47513,-380,-322,9357,-148.700,544.071,7881.429,1476.262,921.874,1986.034,-116.286,98.143,67.144,-13.378,-127.369,42.098,0,0,0,0,0
47613,301,-1004,8729,-137.457,531.114,7899.714,1476.647,937.043,1987.860,112.429,-129.572,182.856,3.850,151.686,18.258,0,0,0,0,0
47713,555,1233,7399,-118.157,552.943,7894.843,1476.743,935.340,1988.663,193.000,218.286,-48.716,0.957,-17.027,8.033,0,0,0,0,0
47813,529,-114,6247,-103.743,570.143,7845.657,1478.065,911.545,1986.232,144.143,172.000,-491.855,13.215,-237.955,-24.314,0,0,0,0,0
47913,-1324,910,8366,-107.300,571.757,7813.257,1480.695,912.045,1958.792,-35.571,16.143,-323.999,26.304,5.002,-274.398,0,0,0,0,0
48013,-398,-1463,11366,-97.214,512.686,7882.143,1476.270,908.002,1997.354,100.857,-590.714,688.857,-44.254,-40.427,385.613,0,0,0,0,0
48113,1096,855,6200,-79.400,517.600,7854.986,1483.021,908.910,2007.093,178.143,49.142,-271.572,67.518,9.080,97.394,0,0,0,0,0
48213,215,103,4919,-79.029,509.171,7823.357,1483.092,909.980,2035.465,3.714,-84.286,-316.289,0.704,10.694,283.723,0,0,0,0,0
48313,-2877,1386,7867,-140.400,531.129,7791.714,1508.501,912.326,2017.242,-613.714,219.572,-316.426,254.088,23.459,-182.231,0,0,0,0,0
48413,365,-203,9907,-152.600,534.686,7775.000,1500.892,908.965,1994.673,-122.000,35.571,-167.144,-76.090,-33.608,-225.695,0,0,0,0,0
48513,-3299,1012,8389,-217.286,558.571,7768.843,1537.091,899.173,1992.101,-646.857,238.857,-61.572,361.992,-97.921,-25.714,0,0,0,0,0
48613,-821,94,8324,-207.186,543.243,7767.986,1530.755,897.815,1991.849,101.000,-153.286,-8.569,-63.359,-13.578,-2.518,0,0,0,0,0
48713,-828,172,10062,-237.957,540.986,7814.671,1521.246,898.547,2006.716,-307.714,-22.571,466.855,-95.093,7.316,148.671,0,0,0,0,0
48813,180,-1846,11390,-232.871,514.243,7855.900,1522.039,940.360,2049.643,50.857,-267.429,412.285,7.936,418.139,429.264,0,0,0,0,0
48913,-1765,-391,6715,-247.000,494.914,7860.529,1531.576,944.853,2046.693,-141.286,-193.286,46.289,95.364,44.921,-29.496,0,0,0,0,0
49013,-733,444,4577,-250.814,479.086,7823.800,1532.448,936.253,2081.916,-38.143,-158.286,-367.290,8.728,-85.995,352.228,0,0,0,0,0
49113,2142,318,6505,-197.357,482.757,7779.600,1549.623,935.110,2076.595,534.571,36.714,-441.997,171.741,-11.433,-53.208,0,0,0,0,0
49213,-2117,-310,9442,-219.957,471.457,7808.300,1565.833,939.830,2085.470,-226.000,-113.000,286.997,162.109,47.201,88.752,0,0,0,0,0
49313,110,-888,5799,-239.286,460.329,7782.100,1553.240,951.181,2098.985,-193.286,-111.286,-261.997,-125.934,113.510,135.142,0,0,0,0,0
49413,414,-934,7490,-207.886,437.357,7749.414,1543.884,965.059,2085.421,314.000,-229.714,-326.860,-93.563,138.782,-135.640,0,0,0,0,0
49513,-868,-1217,11086,-203.057,405.071,7811.557,1541.281,981.914,2118.841,48.286,-322.857,621.431,-26.029,168.548,334.202,0,0,0,0,0
49613,-1324,-958,7224,-236.371,392.357,7808.300,1539.947,993.649,2119.566,-333.143,-127.143,-32.573,-13.344,117.353,7.253,0,0,0,0,0
49713,634,-1623,7530,-191.314,358.529,7774.300,1518.462,1021.000,2104.616,450.571,-338.286,-340.000,-214.843,273.510,-149.502,0,0,0,0,0
49813,18,-870,7394,-162.929,342.371,7745.543,1503.464,1031.312,2095.845,283.857,-161.571,-287.568,-149.987,103.124,-87.710,0,0,0,0,0
49913,-2914,-784,9052,-189.271,306.529,7755.200,1534.951,1026.224,2100.281,-263.428,-358.429,96.572,314.875,-50.886,44.355,0,0,0,0,0
50013,-509,-2099,8956,-207.371,276.471,7789.443,1531.140,1064.706,2100.039,-181.000,-300.571,342.427,-38.114,384.821,-2.419,0,0,0,0,0
50113,-962,-1524,8267,-203.543,255.086,7802.057,1528.911,1085.420,2100.218,38.286,-213.857,126.143,-22.288,207.136,1.790,0,0,0,0,0
50213,-417,-1661,7157,-224.243,222.914,7807.757,1521.836,1108.123,2097.916,-207.000,-321.714,57.002,-70.753,227.039,-23.013,0,0,0,0,0
50313,-992,-1189,8374,-212.871,170.329,7832.543,1513.057,1086.323,2094.208,113.714,-525.857,247.856,-87.786,-218.008,-37.085,0,0,0,0,0
50413,127,-1680,6901,-188.714,119.400,7806.929,1504.769,1088.307,2094.480,241.572,-509.286,-256.143,-82.883,19.841,2.720,0,0,0,0,0
50513,1279,-828,4517,-180.571,102.114,7780.071,1511.133,1093.595,2124.229,81.429,-172.857,-268.574,63.646,52.885,297.488,0,0,0,0,0
50613,2612,-1893,6507,-133.729,62.829,7777.957,1545.754,1114.957,2125.421,468.428,-392.857,-21.143,346.207,213.622,11.921,0,0,0,0,0
50713,-2880,-500,7629,-161.600,48.200,7744.471,1577.114,1115.528,2108.976,-278.714,-146.286,-334.858,313.595,5.709,-164.451,0,0,0,0,0
50813,-930,-1087,3784,-159.243,12.029,7691.443,1575.839,1110.690,2160.592,23.571,-361.714,-530.283,-12.742,-48.381,516.167,0,0,0,0,0
50913,-2040,-4772,14234,-193.600,-66.543,7790.671,1590.188,1243.822,2295.101,-343.571,-785.714,992.285,143.481,1331.315,1345.088,0,0,0,0,0
51013,1989,-2701,8183,-182.800,-112.714,7817.357,1602.360,1280.237,2288.638,108.000,-461.714,266.855,121.727,364.156,-64.626,0,0,0,0,0
51113,-64,-2503,8891,-178.671,-154.314,7809.743,1602.289,1309.584,2284.163,41.286,-416.000,-76.143,-0.717,293.464,-44.753,0,0,0,0,0
51213,-133,-2152,7178,-185.414,-189.057,7775.757,1601.089,1329.706,2275.595,-67.429,-347.429,-339.854,-12.001,201.224,-85.679,0,0,0,0,0
51313,-1094,-869,8075,-204.643,-200.057,7741.571,1603.801,1332.098,2252.753,-192.286,-110.000,-341.860,27.119,23.922,-228.418,0,0,0,0,0
51413,-1879,-1809,7392,-200.957,-239.257,7715.128,1599.646,1338.479,2245.828,36.857,-392.000,-264.429,-41.543,63.805,-69.253,0,0,0,0,0
51513,1267,-3665,7669,-179.529,-300.471,7742.886,1609.093,1394.591,2233.042,214.286,-612.143,277.573,94.463,561.121,-127.856,0,0,0,0,0
51613,4252,-4326,10981,-120.914,-375.129,7795.114,1692.557,1466.363,2265.182,586.143,-746.571,522.285,834.650,717.723,321.392,0,0,0,0,0
51713,-327,-2475,11854,-153.429,-410.714,7842.086,1674.244,1486.527,2314.239,-325.143,-355.857,469.717,-183.135,201.635,490.574,0,0,0,0,0
51813,-2768,-3130,10931,-217.386,-476.529,7896.229,1687.337,1503.383,2341.379,-639.571,-658.143,541.426,130.933,168.560,271.396,0,0,0,0,0
51913,-56,-2849,6816,-184.600,-544.771,7900.657,1667.744,1501.105,2339.037,327.857,-682.429,44.287,-195.930,-22.781,-23.413,0,0,0,0,0
52013,-1690,-1043,7264,-209.214,-561.157,7917.229,1677.040,1500.193,2330.343,-246.143,-163.857,165.713,92.959,-9.113,-86.946,0,0,0,0,0
52113,-166,-3517,11648,-245.000,-623.614,7978.800,1648.771,1530.635,2370.812,-357.857,-624.571,615.713,-282.688,304.413,404.692,0,0,0,0,0
52213,-1850,-2088,7949,-277.043,-652.071,7936.786,1657.832,1539.055,2344.765,-320.428,-284.572,-420.142,90.603,84.208,-260.466,0,0,0,0,0
52313,906,-2651,7537,-261.529,-696.329,7933.457,1663.738,1551.308,2345.165,155.143,-442.571,-33.286,59.062,122.529,3.999,0,0,0,0,0
52413,-704,-1708,7279,-274.629,-724.686,7925.829,1663.560,1551.400,2346.413,-131.000,-283.572,-76.284,-1.775,0.913,12.476,0,0,0,0,0
52513,-274,-2147,7068,-259.214,-759.271,7893.586,1658.488,1555.730,2342.469,154.143,-345.857,-322.427,-50.724,43.303,-39.441,0,0,0,0,0
52613,-93,-2475,7649,-207.171,-821.300,7892.571,1604.862,1536.219,2342.559,520.429,-620.286,-10.146,-536.259,-195.109,0.903,0,0,0,0,0
52713,-390,-2285,7721,-208.443,-850.786,7880.486,1604.971,1544.201,2341.230,-12.714,-294.857,-120.854,1.091,79.822,-13.289,0,0,0,0,0
52813,-416,-2311,7804,-211.143,-912.057,7920.571,1605.159,1515.569,2315.413,-27.000,-612.714,400.854,1.879,-286.326,-258.169,0,0,0,0,0
52913,-66,-2473,7982,-230.400,-953.000,7937.600,1595.186,1518.469,2311.416,-192.571,-409.429,170.288,-99.736,29.005,-39.973,0,0,0,0,0
53013,-608,-2485,8612,-242.871,-991.314,7916.500,1594.676,1522.799,2298.385,-124.714,-383.143,-211.001,-5.095,43.298,-130.308,0,0,0,0,0
53113,-638,-2160,7403,-263.443,-1041.543,7953.757,1590.347,1502.396,2268.426,-205.714,-502.286,372.573,-43.295,-204.032,-299.595,0,0,0,0,0
53213,-520,-2420,8036,-232.186,-1101.471,8003.243,1563.265,1472.216,2231.598,312.572,-599.286,494.854,-270.819,-301.803,-368.281,0,0,0,0,0
53313,-90,-2053,8418,-193.614,-1152.914,8041.814,1532.689,1441.328,2215.038,385.714,-514.429,385.718,-305.759,-308.877,-165.596,0,0,0,0,0
53413,-739,-2258,7471,-275.629,-1160.714,7916.643,1400.365,1445.803,1984.155,-820.143,-77.999,-1251.714,-1323.232,44.749,-2308.828,0,0,0,0,0
53513,-63,-2472,7595,-247.743,-1209.229,7935.771,1384.800,1431.946,1974.484,278.857,-485.143,191.284,-155.656,-138.564,-96.710,0,0,0,0,0
53613,-1710,-2231,8142,-261.871,-1290.157,8027.357,1394.567,1323.194,1827.791,-141.286,-809.286,915.854,97.672,-1087.527,-1466.934,0,0,0,0,0
53713,240,-2534,8062,-276.971,-1330.629,8015.714,1383.283,1317.281,1824.935,-151.000,-404.714,-116.426,-112.841,-59.130,-28.556,0,0,0,0,0
53813,-452,-2061,8337,-309.329,-1346.114,8011.929,1360.317,1319.402,1823.990,-323.571,-154.857,-37.856,-229.658,21.216,-9.458,0,0,0,0,0
53913,0,-2371,7425,-318.700,-1368.329,8007.771,1355.887,1323.374,1824.991,-93.714,-222.144,-41.572,-44.301,39.722,10.011,0,0,0,0,0
54013,-1474,-2221,8243,-380.557,-1397.843,8039.786,1307.551,1319.016,1809.111,-618.571,-295.143,320.142,-483.364,-43.582,-158.793,0,0,0,0,0
54113,196,-3037,8706,-361.057,-1456.143,8067.200,1305.824,1299.849,1804.453,195.000,-582.999,274.146,-17.264,-191.667,-46.580,0,0,0,0,0
54213,-494,-1911,8230,-366.414,-1466.500,8049.971,1305.590,1300.544,1797.044,-53.571,-103.572,-172.290,-2.346,6.947,-74.094,0,0,0,0,0
54313,103,-2457,7468,-394.086,-1511.386,8094.114,1274.449,1279.565,1743.456,-276.714,-448.857,441.431,-311.406,-209.789,-535.884,0,0,0,0,0
54413,-722,-2526,8927,-404.686,-1542.957,8094.400,1274.046,1276.943,1743.591,-106.000,-315.714,2.856,-4.028,-26.223,1.350,0,0,0,0,0
54513,-469,-2366,7804,-405.957,-1572.157,8072.214,1274.066,1272.050,1737.252,-12.715,-292.000,-221.855,0.193,-48.926,-63.381,0,0,0,0,0
54613,483,-2322,8000,-403.357,-1590.986,8061.800,1275.690,1273.255,1735.468,26.000,-188.286,-104.146,16.248,12.045,-17.844,0,0,0,0,0
54713,-317,-2631,8230,-415.814,-1646.186,8073.671,1270.518,1232.743,1733.735,-124.572,-552.000,118.716,-51.720,-405.117,-17.328,0,0,0,0,0
54813,229,-2416,8027,-420.100,-1679.071,8099.100,1267.827,1222.090,1719.754,-42.857,-328.857,254.287,-26.914,-106.533,-139.808,0,0,0,0,0
54913,-1520,-1915,7783,-422.900,-1719.429,8090.771,1270.035,1181.909,1719.853,-28.000,-403.572,-83.286,22.079,-401.810,0.989,0,0,0,0,0
55013,634,-2390,8594,-408.157,-1732.671,8051.171,1276.213,1184.152,1675.321,147.429,-132.428,-396.001,61.781,22.437,-445.323,0,0,0,0,0
55113,-846,-1276,7672,-435.900,-1763.114,8072.200,1264.266,1143.946,1661.131,-277.429,-304.429,210.288,-119.474,-402.065,-141.897,0,0,0,0,0
55213,415,-2139,7934,-433.043,-1795.143,8115.271,1265.958,1122.433,1617.324,28.571,-320.286,430.713,16.926,-215.127,-438.071,0,0,0,0,0
55313,-971,-1593,8234,-405.814,-1837.700,8120.514,1233.173,1055.492,1617.105,272.285,-425.571,52.427,-327.852,-669.415,-2.186,0,0,0,0,0
55413,300,-1920,7675,-406.743,-1862.229,8088.628,1232.616,1037.006,1603.513,-9.286,-245.286,-318.857,-5.565,-184.852,-135.922,0,0,0,0,0
55513,-478,-740,8288,-366.443,-1887.257,8087.186,1182.493,987.284,1603.288,403.000,-250.287,-14.429,-501.235,-497.220,-2.253,0,0,0,0,0
55613,31,54,8365,-354.271,-1887.829,8087.771,1182.136,986.149,1603.382,121.714,-5.714,5.859,-3.566,-11.359,0.939,0,0,0,0,0
55713,-302,418,7686,-346.757,-1884.314,8053.829,1180.772,993.891,1586.287,75.143,35.143,-339.429,-13.641,77.420,-170.945,0,0,0,0,0
55813,-746,304,7964,-359.986,-1853.600,8004.886,1179.983,1027.261,1534.610,-132.286,307.144,-489.429,-7.888,333.701,-516.775,0,0,0,0,0
55913,-15,81,8069,-334.986,-1846.857,8024.229,1168.433,1038.328,1526.742,250.000,67.428,193.428,-115.505,110.677,-78.674,0,0,0,0,0
56013,-389,-71,7972,-330.071,-1854.214,8072.729,1167.472,1023.793,1469.308,49.143,-73.571,485.000,-9.612,-145.352,-574.342,0,0,0,0,0
56113,-571,-491,8047,-368.829,-1865.771,8094.757,1129.165,1003.573,1457.148,-387.571,-115.573,220.288,-383.063,-202.198,-121.604,0,0,0,0,0
56213,-744,143,7562,-349.214,-1859.300,8067.900,1110.397,1014.980,1449.374,196.143,64.714,-268.574,-187.681,114.070,-77.742,0,0,0,0,0
56313,154,12,7524,-348.586,-1846.443,8092.543,1110.670,1032.747,1425.048,6.286,128.572,246.431,2.723,177.671,-243.254,0,0,0,0,0
56413,-278,297,7900,-358.471,-1828.857,8098.400,1106.911,1058.300,1423.401,-98.857,175.857,58.569,-37.584,255.522,-16.472,0,0,0,0,0
56513,-565,-44,8080,-354.143,-1812.100,8055.457,1105.502,1076.977,1377.215,43.286,167.572,-429.429,-14.094,186.774,-461.863,0,0,0,0,0
56613,-1017,-117,8101,-349.757,-1800.086,8067.986,1102.250,1091.037,1373.578,43.857,120.143,125.288,-32.520,140.601,-36.367,0,0,0,0,0
56713,-618,79,7844,-367.643,-1775.771,8072.471,1096.283,1113.447,1372.326,-178.857,243.142,44.854,-59.664,224.102,-12.520,0,0,0,0,0
56813,-351,164,7637,-372.914,-1761.000,8075.943,1095.303,1132.069,1370.912,-52.714,147.715,34.717,-9.803,186.213,-14.142,0,0,0,0,0
56913,-311,199,7585,-335.729,-1746.957,8054.986,1051.721,1150.055,1367.038,371.857,140.428,-209.570,-435.825,179.865,-38.735,0,0,0,0,0
57013,-636,84,7899,-337.543,-1715.771,8039.886,1052.127,1169.519,1362.834,-18.143,311.857,-151.001,4.069,194.640,-42.047,0,0,0,0,0
57113,-833,99,7956,-335.700,-1692.586,8035.443,1051.145,1189.016,1362.593,18.428,231.858,-44.429,-9.828,194.974,-2.407,0,0,0,0,0
57213,-897,-2,7973,-342.557,-1668.886,8047.100,1053.216,1205.825,1358.512,-68.571,237.000,116.572,20.717,168.086,-40.806,0,0,0,0,0
57313,-495,348,7540,-335.457,-1646.929,8035.186,1050.486,1228.151,1359.250,71.000,219.572,-119.146,-27.305,223.257,7.375,0,0,0,0,0
57413,-422,186,7869,-343.300,-1620.271,8049.014,1049.052,1247.246,1352.548,-78.428,266.571,138.286,-14.336,190.952,-67.017,0,0,0,0,0
57513,-380,116,7909,-367.000,-1606.786,8097.471,1030.713,1260.770,1284.174,-237.000,134.857,484.570,-183.391,135.236,-683.743,0,0,0,0,0
57613,-867,40,7730,-416.700,-1579.171,8114.943,967.829,1275.284,1270.665,-497.000,276.144,174.717,-628.837,145.142,-135.087,0,0,0,0,0
57713,-674,121,7743,-385.186,-1570.300,8116.571,921.934,1284.884,1270.114,315.143,88.713,16.284,-458.951,96.002,-5.509,0,0,0,0,0
57813,-295,34,7774,-376.114,-1554.286,8173.571,919.650,1297.729,1159.076,90.714,160.143,570.000,-22.842,128.453,-1110.380,0,0,0,0,0
57913,-195,33,7810,-349.757,-1485.643,8081.800,897.764,1251.987,901.236,263.571,686.429,-917.715,-218.861,-457.419,-2578.400,0,0,0,0,0
58013,-590,-13,8035,-386.600,-1447.243,8079.686,852.823,1255.340,901.170,-368.429,384.000,-21.143,-449.408,33.523,-0.662,0,0,0,0,0
58113,-703,-37,7852,-395.729,-1412.014,8064.843,852.741,1259.811,896.228,-91.286,352.285,-148.428,-0.820,44.718,-49.423,0,0,0,0,0
58213,-639,-87,7834,-402.957,-1382.514,8074.214,852.628,1266.299,890.316,-72.286,295.000,93.716,-1.132,64.874,-59.120,0,0,0,0,0
58313,-92,-27,7782,-388.643,-1370.486,8070.029,849.311,1275.088,890.991,143.143,120.286,-41.855,-33.171,87.893,6.750,0,0,0,0,0
58413,112,-147,7983,-360.200,-1346.743,8078.471,832.088,1282.156,887.319,284.428,237.429,84.424,-172.232,70.676,-36.724,0,0,0,0,0
58513,-230,-166,7960,-381.586,-1296.757,8082.628,808.906,1258.795,886.071,-213.857,499.856,41.572,-231.814,-233.607,-12.473,0,0,0,0,0
58613,-460,-252,8193,-448.900,-1238.557,8042.800,585.807,1210.653,814.679,-673.143,582.001,-398.286,-2230.992,-481.421,-713.922,0,0,0,0,0
58713,-692,-67,7893,-454.114,-1204.157,7986.214,586.323,1209.242,673.288,-52.143,344.000,-565.854,5.159,-14.111,-1413.907,0,0,0,0,0
58813,-290,-95,7830,-418.714,-1160.800,7941.914,516.159,1193.724,572.556,354.000,433.571,-443.003,-701.644,-155.179,-1007.319,0,0,0,0,0
58913,99,-68,7841,-416.500,-1121.071,7956.557,518.039,1183.108,556.455,22.143,397.286,146.431,18.801,-106.161,-161.014,0,0,0,0,0
59013,-78,-179,7886,-393.471,-1108.729,7965.443,496.288,1188.353,550.257,230.286,123.429,88.857,-217.502,52.452,-61.984,0,0,0,0,0
59113,-594,-96,7473,-399.586,-1059.857,7905.800,496.085,1158.271,330.087,-61.143,488.713,-596.431,-2.036,-300.817,-2201.694,0,0,0,0,0
59213,-655,-263,8140,-382.514,-1033.786,7908.529,465.497,1155.371,331.221,170.714,260.714,27.290,-305.875,-29.000,11.333,0,0,0,0,0
59313,-364,-72,8014,-400.657,-996.943,7915.343,438.914,1144.280,328.402,-181.429,368.429,68.140,-265.835,-110.911,-28.190,0,0,0,0,0
59413,89,-347,8174,-389.329,-977.500,7928.128,441.166,1143.596,320.710,113.286,194.429,127.856,22.525,-6.843,-76.912,0,0,0,0,0
59513,-261,-108,8322,-389.143,-948.371,7946.043,441.218,1139.397,306.890,1.857,291.286,179.146,0.513,-41.993,-138.203,0,0,0,0,0
59613,-217,-291,8261,-390.914,-917.171,7954.786,440.273,1127.000,307.021,-17.714,312.000,87.427,-9.446,-123.961,1.306,0,0,0,0,0
59713,-491,-330,8125,-392.357,-889.243,7960.557,440.433,1116.937,306.368,-14.429,279.286,57.715,1.600,-100.640,-6.525,0,0,0,0,0
59813,-62,-372,8449,-387.300,-861.543,7969.771,442.161,1105.317,311.183,50.572,277.000,92.144,17.284,-116.199,48.145,0,0,0,0,0
59913,163,-414,8359,-384.029,-832.129,7975.157,445.362,1089.323,314.592,32.714,294.142,53.857,32.007,-159.939,34.088,0,0,0,0,0
60013,274,-472,8521,-371.429,-803.371,7973.857,451.284,1071.738,312.136,126.000,287.572,-13.003,59.224,-175.852,-24.560,0,0,0,0,0
60113,-101,-408,8362,-363.757,-778.343,7987.557,451.252,1060.159,307.795,76.714,250.286,137.002,-0.323,-115.790,-43.406,0,0,0,0,0
60213,-532,-424,8267,-363.929,-749.829,7990.857,451.314,1042.313,309.530,-1.714,285.143,32.998,0.616,-178.456,17.351,0,0,0,0,0
60313,-232,-422,8339,-365.957,-726.529,7989.729,450.396,1031.090,308.112,-20.286,233.000,-11.284,-9.175,-112.227,-14.186,0,0,0,0,0
60413,199,-261,8198,-352.557,-698.000,8000.114,453.044,1015.836,302.656,134.000,285.286,103.857,26.477,-152.540,-54.557,0,0,0,0,0
60513,-112,-435,8176,-353.257,-668.900,8008.414,452.634,993.533,299.381,-7.000,291.000,82.998,-4.102,-223.035,-32.747,0,0,0,0,0
60613,-403,-212,8294,-334.586,-640.057,8010.586,422.217,976.933,300.890,186.714,288.429,21.719,-304.163,-165.998,15.084,0,0,0,0,0
60713,-699,-410,8415,-348.000,-609.714,8015.628,418.651,950.258,304.644,-134.143,303.428,50.425,-35.668,-266.750,37.541,0,0,0,0,0
60813,-344,-198,8318,-346.457,-583.100,8015.357,418.463,935.208,304.366,15.428,266.143,-2.715,-1.872,-150.496,-2.781,0,0,0,0,0
60913,-261,-343,8587,-350.186,-554.129,8031.957,416.518,910.458,303.401,-37.285,289.714,166.001,-19.453,-247.507,-9.646,0,0,0,0,0
61013,189,-155,8150,-326.429,-524.614,8030.628,398.790,889.183,302.677,237.571,295.143,-13.286,-177.276,-212.750,-7.243,0,0,0,0,0
61113,-419,-157,8341,-335.214,-483.471,8025.414,393.929,837.085,294.017,-87.857,411.428,-52.144,-48.615,-520.978,-86.596,0,0,0,0,0
61213,-454,-32,8130,-334.643,-456.629,8023.986,393.727,820.847,293.262,5.714,268.429,-14.282,-2.018,-162.375,-7.556,0,0,0,0,0
61313,-669,-73,8220,-345.671,-422.571,8034.729,392.123,785.856,286.391,-110.286,340.571,107.427,-16.044,-349.918,-68.705,0,0,0,0,0
61413,-191,14,8210,-338.086,-386.286,8024.486,389.899,745.499,266.421,75.857,362.857,-102.427,-22.236,-403.561,-199.699,0,0,0,0,0
61513,-222,-58,8199,-334.557,-353.314,8030.128,389.816,707.271,265.874,35.286,329.714,56.426,-0.830,-382.286,-5.472,0,0,0,0,0
61613,-511,20,8014,-348.757,-319.857,8030.329,377.692,667.635,265.857,-142.000,334.572,2.002,-121.244,-396.360,-0.174,0,0,0,0,0
61713,-453,-56,8068,-350.700,-283.071,8028.014,377.873,607.513,264.811,-19.429,367.857,-23.145,1.814,-601.218,-10.452,0,0,0,0,0
61813,-610,-223,8484,-362.686,-251.743,8034.543,372.564,550.591,270.283,-119.857,313.286,65.288,-53.088,-569.216,54.714,0,0,0,0,0
61913,-470,3,8592,-347.686,-224.343,8046.100,345.847,513.621,276.504,150.000,274.000,115.571,-267.178,-369.702,62.216,0,0,0,0,0
62013,78,-415,8642,-355.629,-196.129,8046.786,329.193,443.316,277.918,-79.429,282.143,6.855,-166.533,-703.052,14.138,0,0,0,0,0
62113,-500,722,8380,-350.686,-167.586,8056.900,324.355,437.147,276.976,49.429,285.429,101.143,-48.380,-61.688,-9.421,0,0,0,0,0
62213,-641,-2,9068,-365.771,-137.057,8073.100,312.742,367.473,301.400,-150.857,305.286,162.002,-116.134,-696.743,244.243,0,0,0,0,0
62313,-122,1686,7660,-353.643,-90.214,8064.900,305.412,387.348,304.701,121.286,468.429,-82.002,-73.300,198.756,33.011,0,0,0,0,0
62413,-425,853,8012,-364.000,-50.600,8069.714,295.192,336.673,301.145,-103.571,396.143,48.145,-102.198,-506.757,-35.569,0,0,0,0,0
62513,-350,1362,8664,-362.171,-20.571,8075.086,294.876,366.283,308.259,18.286,300.286,53.716,-3.156,296.106,71.148,0,0,0,0,0
62613,-13,900,7629,-362.800,-8.486,8064.571,294.083,382.158,310.734,-6.286,120.857,-105.146,-7.930,158.743,24.742,0,0,0,0,0
62713,-886,1436,8196,-371.143,6.057,8071.857,300.455,415.983,307.736,-83.429,145.429,72.856,63.716,338.258,-29.973,0,0,0,0,0
62813,124,880,7843,-358.714,14.286,8070.128,302.678,427.338,308.676,124.286,82.286,-17.285,22.226,113.542,9.394,0,0,0,0,0
62913,-1070,1200,8672,-373.786,30.271,8078.743,311.330,449.870,316.830,-150.714,159.857,86.143,86.525,225.323,81.546,0,0,0,0,0
63013,22,767,8264,-367.914,42.243,8082.914,314.844,458.091,317.319,58.714,119.714,41.714,35.134,82.206,4.890,0,0,0,0,0
63113,-841,1203,8298,-371.771,66.443,8086.500,318.935,473.758,318.310,-38.571,242.000,35.859,40.917,156.680,9.904,0,0,0,0,0
63213,-111,1198,7796,-362.729,81.514,8089.843,317.222,492.370,313.983,90.428,150.714,33.428,-17.129,186.112,-43.264,0,0,0,0,0
63313,-902,1620,8669,-377.814,104.486,8106.200,317.400,525.019,313.904,-150.857,229.714,163.574,1.773,326.490,-0.793,0,0,0,0,0
63413,38,1604,7727,-373.300,123.157,8103.729,321.014,553.975,316.191,45.143,186.714,-24.717,36.142,289.567,22.864,0,0,0,0,0
63513,-767,1174,7744,-376.186,140.557,8098.929,323.621,567.417,319.052,-28.857,174.000,-47.998,26.076,134.416,28.612,0,0,0,0,0
63613,-144,733,8038,-363.714,152.700,8098.029,315.403,570.860,319.133,124.714,121.429,-8.999,-82.184,34.430,0.817,0,0,0,0,0
63713,56,380,8656,-354.086,157.000,8109.628,317.772,571.422,324.403,96.286,43.000,115.996,23.692,5.620,52.696,0,0,0,0,0
63813,-272,841,8491,-352.957,166.671,8121.829,317.921,577.159,322.452,11.286,96.714,122.002,1.492,57.371,-19.512,0,0,0,0,0
63913,12,868,8041,-348.343,176.229,8128.343,320.828,583.123,316.084,46.143,95.571,65.142,29.062,59.644,-63.678,0,0,0,0,0
64013,-477,1217,8178,-346.071,192.414,8132.329,319.342,595.922,314.924,22.714,161.857,39.858,-14.852,127.991,-11.601,0,0,0,0,0
64113,-454,1378,7466,-340.657,210.686,8125.329,314.213,612.164,324.078,54.143,182.714,-70.000,-51.299,162.420,91.543,0,0,0,0,0
64213,-136,1070,8355,-329.786,226.000,8130.786,307.877,620.011,324.683,108.714,153.143,54.570,-63.360,78.464,6.047,0,0,0,0,0
64313,-364,1359,7382,-327.914,240.443,8128.529,307.264,634.295,329.298,18.714,144.429,-22.568,-6.124,142.845,46.156,0,0,0,0,0
64413,-229,622,7774,-325.157,246.671,8127.171,307.273,635.869,330.559,27.571,62.286,-13.574,0.093,15.736,12.601,0,0,0,0,0
64513,-427,-691,7629,-325.829,235.143,8123.171,307.444,645.378,334.841,-6.714,-115.286,-40.000,1.704,95.092,42.822,0,0,0,0,0
64613,-460,25,8509,-320.014,234.929,8134.300,300.934,645.445,334.534,58.143,-2.143,111.284,-65.099,0.673,-3.071,0,0,0,0,0
64713,-272,-1208,8441,-314.271,215.943,8144.271,297.945,667.680,333.121,57.429,-189.857,99.717,-29.891,222.352,-14.124,0,0,0,0,0
64813,96,573,8185,-308.686,223.643,8150.143,301.893,668.645,330.152,55.857,77.000,58.716,39.479,9.646,-29.691,0,0,0,0,0
64913,-603,-47,8511,-314.514,222.500,8160.157,303.576,669.038,330.314,-58.286,-11.429,100.142,16.827,3.931,1.622,0,0,0,0,0
65013,-677,-21,7750,-315.757,222.386,8156.086,304.876,669.079,333.572,-12.429,-1.143,-40.713,13.006,0.411,32.580,0,0,0,0,0
65113,-380,106,7850,-311.143,224.429,8156.057,301.405,668.502,333.598,46.143,20.429,-0.288,-34.713,-5.770,0.261,0,0,0,0,0
65213,-331,1033,8267,-306.743,240.429,8162.243,298.824,674.235,331.578,44.000,160.000,61.855,-25.811,57.332,-20.208,0,0,0,0,0
65313,-181,2699,8522,-308.014,279.371,8172.814,298.096,733.762,331.082,-12.714,389.429,105.718,-7.280,595.262,-4.955,1,0,0,0,0
65413,-5,1691,7978,-309.686,305.629,8172.743,296.057,750.724,331.124,-16.714,262.571,-0.718,-20.386,169.626,0.415,0,0,0,0,0
65513,-1366,315,7581,-325.914,312.500,8167.329,321.303,748.574,337.593,-162.286,68.714,-54.141,252.460,-21.502,64.697,0,0,0,0,0
65613,291,-96,7731,-315.186,314.729,8160.729,329.091,747.121,341.520,107.286,22.286,-66.001,77.875,-14.530,39.268,0,0,0,0,0
65713,-317,1214,8374,-309.829,333.029,8167.600,325.950,753.211,340.903,53.571,183.000,68.716,-31.403,60.895,-6.175,0,0,0,0,0
65813,-1116,1981,7298,-321.629,362.686,8160.000,339.681,776.290,354.022,-118.000,296.571,-76.001,137.307,230.797,131.194,0,0,0,0,0
65913,524,1241,7219,-315.557,381.386,8151.114,350.762,781.439,369.390,60.714,187.000,-88.857,110.815,51.492,153.675,0,0,0,0,0
66013,-380,767,8327,-319.871,394.900,8157.414,349.670,779.810,368.574,-43.143,135.143,62.998,-10.928,-16.299,-8.156,0,0,0,0,0
66113,-771,652,8168,-322.400,405.586,8167.343,352.273,778.133,359.247,-25.286,106.857,99.287,26.034,-16.769,-93.275,0,0,0,0,0
66213,-272,1208,7981,-316.929,426.600,8165.071,350.032,779.654,359.914,54.714,210.143,-22.715,-22.411,15.219,6.677,0,0,0,0,0
66313,-763,1584,7208,-322.629,450.257,8153.557,353.978,789.232,377.048,-57.000,236.571,-115.142,39.465,95.774,171.337,0,0,0,0,0
66413,-744,115,6743,-334.529,456.857,8133.114,353.942,784.454,412.511,-119.000,66.000,-204.429,-0.362,-47.775,354.628,0,0,0,0,0
66513,-315,275,8342,-335.300,462.329,8133.400,353.840,781.827,412.649,-7.714,54.714,2.856,-1.023,-26.276,1.377,0,0,0,0,0
66613,58,-707,8166,-331.371,456.386,8132.043,356.647,789.078,412.383,39.286,-59.429,-13.569,28.071,72.510,-2.658,0,0,0,0,0
66713,-1119,-1206,8106,-340.343,443.871,8131.771,368.259,808.166,412.394,-89.714,-125.143,-2.715,116.122,190.879,0.108,0,0,0,0,0
66813,-831,15,8263,-351.329,449.400,8129.114,371.250,803.878,410.938,-109.857,55.286,-26.572,29.908,-42.878,-14.559,0,0,0,0,0
66913,-566,261,7277,-361.743,459.043,8113.657,366.875,797.486,422.195,-104.143,96.429,-154.570,-43.748,-63.916,112.574,0,0,0,0,0
67013,-417,192,8323,-371.614,468.529,8110.829,358.845,790.272,420.115,-98.714,94.857,-28.286,-80.302,-72.144,-20.804,0,0,0,0,0
67113,-226,-600,8648,-373.400,465.786,8114.914,357.804,793.635,423.911,-17.857,-27.429,40.854,-10.416,33.636,37.964,0,0,0,0,0
67213,-418,-256,8193,-371.771,468.186,8113.857,357.337,791.191,423.623,16.286,24.000,-10.571,-4.665,-24.443,-2.884,0,0,0,0,0
67313,-143,-795,8912,-370.500,462.857,8122.043,357.990,798.392,433.319,12.714,-53.286,81.860,6.526,72.007,96.965,0,0,0,0,0
67413,-583,-471,9244,-381.671,459.857,8136.986,352.198,801.495,453.258,-111.714,-30.000,149.429,-57.913,31.028,199.384,0,0,0,0,0
67513,-356,-859,7705,-385.157,453.800,8130.257,350.717,809.794,456.116,-34.857,-60.572,-67.285,-14.819,82.990,28.579,0,0,0,0,0
67613,-429,-472,8077,-385.529,450.086,8127.157,350.749,813.427,455.729,-3.714,-37.143,-31.001,0.325,36.335,-3.862,0,0,0,0,0
67713,-686,-1379,8457,-385.343,436.243,8127.757,350.586,835.881,456.135,1.857,-138.429,6.001,-1.626,224.543,4.061,0,0,0,0,0
67813,237,-1074,8186,-377.043,423.729,8125.872,358.260,851.691,455.618,83.000,-125.143,-18.857,76.740,158.098,-5.179,0,0,0,0,0
67913,-488,-1427,7845,-380.286,408.243,8115.271,358.223,875.026,453.392,-32.429,-154.857,-106.001,-0.377,233.351,-22.256,0,0,0,0,0
68013,-718,-1736,8913,-393.243,385.657,8126.171,353.773,909.017,463.162,-129.572,-225.857,108.999,-44.500,339.905,97.702,0,0,0,0,0
68113,-639,-1453,8800,-396.386,367.143,8132.729,354.963,932.769,469.365,-31.429,-185.143,65.571,11.901,237.518,62.026,0,0,0,0,0
68213,-131,-1748,7626,-391.771,342.629,8125.529,356.281,964.931,473.201,46.143,-245.143,-71.997,13.180,321.626,38.366,0,0,0,0,0
68313,-246,-1550,7667,-385.729,321.529,8117.628,355.113,989.622,476.165,60.428,-211.000,-79.004,-11.680,246.906,29.637,0,0,0,0,0
68413,-456,-1598,8220,-389.514,298.500,8117.771,354.429,1014.942,476.194,-37.857,-230.286,1.431,-6.842,253.201,0.292,0,0,0,0,0
68513,-181,-1688,7521,-388.929,275.214,8108.086,354.739,1041.212,481.311,5.857,-232.857,-96.855,3.101,262.703,51.171,0,0,0,0,0
68613,-441,-1973,8161,-387.929,246.743,8110.186,354.492,1074.518,481.217,10.000,-284.714,20.996,-2.469,333.055,-0.945,0,0,0,0,0
68713,-278,-2058,8257,-385.429,218.143,8112.886,354.641,1108.307,481.503,25.000,-286.000,27.002,1.493,337.893,2.859,0,0,0,0,0
68813,-329,-2005,8354,-381.414,192.686,8111.029,353.665,1138.210,480.317,40.143,-254.571,-18.569,-9.757,299.027,-11.857,0,0,0,0,0
68913,-872,-1651,7597,-387.157,169.057,8096.814,358.291,1158.883,480.596,-57.429,-236.286,-142.144,46.254,206.730,2.787,0,0,0,0,0
69013,-31,-1685,7174,-388.714,150.914,8075.843,356.498,1177.673,488.315,-15.572,-181.429,-209.717,-17.926,187.905,77.196,0,0,0,0,0
69113,534,-1781,6991,-373.943,115.157,8056.000,372.638,1197.621,503.537,147.714,-357.571,-198.428,161.393,199.473,152.213,0,0,0,0,0
69213,-831,-1884,7755,-376.657,88.271,8037.243,375.256,1220.849,489.756,-27.143,-268.857,-187.573,26.181,232.279,-137.806,0,0,0,0,0
69313,-370,-1846,7845,-380.200,37.814,8039.886,374.003,1226.746,488.210,-35.429,-504.571,26.431,-12.524,58.977,-15.461,0,0,0,0,0
69413,-85,-2323,8190,-375.343,-7.557,8042.429,375.594,1254.183,488.522,48.571,-453.714,25.430,15.910,274.368,3.116,0,0,0,0,0
69513,-467,-1726,8046,-377.014,-51.671,8033.600,375.738,1259.531,482.759,-16.714,-441.143,-88.286,1.438,53.485,-57.625,0,0,0,0,0
69613,-130,-2468,8196,-378.686,-99.786,8041.700,374.373,1286.303,480.655,-16.714,-481.143,81.001,-13.653,267.715,-21.045,0,0,0,0,0
69713,212,-1864,7894,-363.000,-146.929,8037.386,375.788,1289.621,480.606,156.857,-471.429,-43.145,14.153,33.179,-0.490,0,0,0,0,0
69813,-685,-2285,8264,-374.557,-192.143,8043.400,373.063,1308.173,480.770,-115.571,-452.143,60.142,-27.248,185.522,1.640,0,0,0,0,0
69913,-3,-120,8569,-359.314,-211.000,8041.929,366.070,1297.439,478.998,152.428,-188.571,-14.712,-69.937,-107.338,-17.717,0,0,0,0,0
70013,-1109,515,7810,-375.471,-214.600,8035.443,373.762,1295.068,479.021,-161.571,-36.000,-64.858,76.920,-23.711,0.227,0,0,0,0,0
70113,224,293,7744,-360.257,-227.600,8027.529,376.170,1285.304,479.194,152.143,-130.000,-79.141,24.087,-97.645,1.733,0,0,0,0,0
70213,-507,605,7774,-365.914,-236.071,8027.214,375.356,1277.812,479.353,-56.571,-84.714,-3.145,-8.142,-74.917,1.589,0,0,0,0,0
70313,-933,-178,7931,-366.357,-261.757,8016.671,376.006,1258.164,473.198,-4.429,-256.857,-105.430,6.499,-196.477,-61.551,0,0,0,0,0
70413,-120,-393,8034,-368.614,-290.286,8021.057,374.041,1238.015,471.914,-22.571,-285.286,43.857,-19.650,-201.494,-12.841,0,0,0,0,0
70513,-424,78,8128,-363.714,-305.943,8026.543,371.025,1226.272,470.892,49.000,-156.572,54.858,-30.165,-117.432,-10.216,0,0,0,0,0
70613,-425,216,7609,-367.729,-313.329,8020.414,370.145,1221.540,473.487,-40.143,-73.857,-61.289,-8.799,-47.319,25.955,0,0,0,0,0
70713,-761,-94,8038,-379.400,-320.100,8011.586,369.480,1218.989,467.275,-116.714,-67.714,-88.281,-6.648,-25.510,-62.126,0,0,0,0,0
70813,-338,128,7660,-380.343,-330.286,7999.714,369.289,1212.204,465.497,-9.429,-101.857,-118.716,-1.911,-67.843,-17.779,0,0,0,0,0
70913,-233,-148,7687,-383.843,-344.800,7994.657,366.706,1203.823,466.942,-35.000,-145.143,-50.571,-25.831,-83.812,14.446,0,0,0,0,0
71013,77,143,7787,-375.929,-360.143,7989.071,370.568,1190.592,467.054,79.143,-153.429,-55.859,38.620,-132.317,1.120,0,0,0,0,0
71113,-541,141,7807,-377.171,-377.814,7993.943,370.973,1173.723,463.336,-12.429,-176.714,48.716,4.054,-168.689,-37.176,0,0,0,0,0
71213,-683,91,7769,-384.986,-391.800,7985.571,371.571,1162.163,462.029,-78.143,-139.857,-83.716,5.982,-115.592,-13.071,0,0,0,0,0
71313,-395,151,7723,-385.429,-409.057,7990.443,371.565,1144.878,457.414,-4.428,-172.571,48.716,-0.068,-172.859,-46.148,0,0,0,0,0
71413,-7,70,7689,-382.257,-416.943,7989.229,373.827,1139.638,458.099,31.714,-78.857,-12.144,22.621,-52.396,6.852,0,0,0,0,0
71513,214,208,7510,-373.100,-404.100,7987.529,380.411,1141.541,459.651,91.571,128.429,-16.997,65.847,19.028,15.518,0,0,0,0,0
71613,-225,132,7861,-369.743,-402.571,7978.271,380.667,1142.186,455.563,33.571,15.286,-92.573,2.552,6.453,-40.883,0,0,0,0,0
71713,-635,205,7650,-374.929,-382.386,7966.971,381.771,1140.258,453.752,-51.857,201.857,-113.003,11.040,-19.283,-18.113,0,0,0,0,0
71813,-735,-140,7835,-386.800,-392.571,7961.971,379.858,1134.850,453.250,-118.714,-101.857,-50.000,-19.131,-54.080,-5.020,0,0,0,0,0
71913,-365,-121,7780,-383.400,-393.629,7951.529,378.971,1134.562,448.880,34.000,-10.571,-104.424,-8.861,-2.881,-43.699,0,0,0,0,0
72013,89,38,7721,-372.457,-392.786,7951.114,381.387,1134.860,449.079,109.428,8.429,-4.146,24.157,2.983,1.991,0,0,0,0,0
72113,-164,-95,8071,-369.371,-395.657,7954.271,382.187,1133.848,449.134,30.857,-28.714,31.572,7.994,-10.117,0.550,0,0,0,0,0
72213,-166,-29,7847,-367.014,-410.829,7948.271,382.924,1121.670,447.719,23.571,-151.714,-60.000,7.375,-121.782,-14.148,0,0,0,0,0
72313,-686,69,7949,-374.229,-448.400,7940.086,384.107,1059.181,442.361,-72.143,-375.714,-81.855,11.828,-624.894,-53.582,0,0,0,0,0
72413,193,-80,7912,-371.400,-473.700,7939.143,387.529,1028.483,442.349,28.286,-253.000,-9.429,34.223,-306.980,-0.115,0,0,0,0,0
72513,-56,-157,8185,-352.686,-480.443,7947.771,370.294,1024.830,441.168,187.143,-67.429,86.284,-172.348,-36.522,-11.809,0,0,0,0,0
72613,151,-132,8249,-354.686,-480.957,7955.171,367.177,1024.646,441.814,-20.000,-5.143,73.999,-31.170,-1.840,6.458,0,0,0,0,0
72713,-304,-69,8305,-354.500,-499.286,7954.186,367.200,1005.459,440.955,1.857,-183.286,-9.858,0.221,-191.876,-8.594,0,0,0,0,0
72813,-512,127,7583,-345.871,-525.771,7958.257,356.134,963.310,436.167,86.286,-264.857,40.718,-110.654,-421.487,-47.877,0,0,0,0,0
72913,-115,3,8261,-355.000,-543.457,7973.143,341.614,941.836,428.395,-91.286,-176.857,148.857,-145.203,-214.741,-77.721,0,0,0,0,0
73013,-232,-57,8125,-352.886,-555.229,7970.257,341.910,930.465,426.679,21.143,-117.714,-28.857,2.966,-113.712,-17.165,0,0,0,0,0
73113,-81,-13,8047,-343.029,-564.729,7968.529,339.653,921.441,426.119,98.571,-95.000,-17.285,-22.574,-90.233,-5.599,0,0,0,0,0
73213,-1065,209,8305,-354.357,-579.000,7973.157,350.157,901.393,427.985,-113.286,-142.714,46.284,105.043,-200.488,18.660,0,0,0,0,0
73313,-214,78,8407,-346.514,-600.514,7990.286,347.051,866.819,420.954,78.429,-215.143,171.284,-31.062,-345.735,-70.303,0,0,0,0,0
73413,-901,2419,7924,-348.757,-567.600,8007.157,350.106,934.467,393.390,-22.429,329.143,168.716,30.554,676.475,-275.640,1,0,0,0,0
73513,-342,1312,7645,-349.143,-552.786,7997.200,350.084,955.686,393.610,-3.857,148.143,-99.570,-0.226,212.196,2.196,0,0,0,0,0
73613,-246,1785,7499,-353.486,-517.186,7987.671,346.877,994.889,397.463,-43.429,356.000,-95.288,-32.067,392.026,38.529,0,0,0,0,0
73713,-634,1245,8058,-346.557,-482.171,7986.986,336.197,1012.996,397.299,69.286,350.143,-6.855,-106.804,181.072,-1.634,0,0,0,0,0
73813,229,1155,7838,-331.414,-465.886,7980.914,337.903,1029.881,396.281,151.429,162.857,-60.718,17.066,168.850,-10.183,0,0,0,0,0
73913,-838,1532,7509,-335.300,-447.729,7984.229,342.116,1053.470,391.319,-38.857,181.571,33.145,42.130,235.891,-49.619,0,0,0,0,0
74013,-399,1442,7749,-335.043,-429.871,7976.029,342.062,1074.546,390.147,2.571,178.571,-81.997,-0.547,210.759,-11.725,0,0,0,0,0
74113,-272,1927,8127,-335.700,-393.771,7968.586,341.896,1110.085,382.144,-6.572,361.000,-74.429,-1.660,355.386,-80.027,0,0,0,0,0
74213,-588,2182,8004,-338.129,-358.943,7965.886,343.073,1151.340,381.215,-24.286,348.286,-27.002,11.778,412.551,-9.286,0,0,0,0,0
74313,-149,1340,7471,-338.214,-328.443,7945.300,343.025,1167.549,368.256,-0.857,305.000,-205.859,-0.481,162.094,-129.593,0,0,0,0,0
74413,-46,638,7798,-330.543,-312.600,7924.643,343.470,1173.019,333.768,76.714,158.429,-206.567,4.442,54.696,-344.879,0,0,0,0,0
74513,-505,148,8026,-332.671,-298.214,7929.229,344.082,1172.404,332.923,-21.286,143.857,45.854,6.123,-6.145,-8.452,0,0,0,0,0
74613,2,15,8311,-326.514,-291.257,7932.571,346.153,1172.797,335.554,61.571,69.572,33.428,20.712,3.931,26.314,0,0,0,0,0
74713,-846,582,8347,-328.800,-263.243,7931.000,349.036,1169.898,333.345,-22.857,280.143,-15.713,28.824,-28.999,-22.093,0,0,0,0,0
74813,387,978,8089,-326.657,-233.929,7929.614,352.941,1174.913,332.483,21.429,293.143,-13.857,39.057,50.153,-8.624,0,0,0,0,0
74913,-178,1980,7844,-322.229,-185.257,7929.600,352.834,1194.880,332.486,44.286,486.714,-0.142,-1.074,199.670,0.037,0,0,0,0,0
75013,-200,1292,7719,-314.829,-142.000,7912.543,349.875,1192.765,311.568,74.000,432.571,-170.571,-29.585,-21.152,-209.186,0,0,0,0,0
75113,-713,1059,7788,-315.886,-106.114,7898.086,350.963,1190.568,292.978,-10.571,358.857,-144.570,10.880,-21.964,-185.901,0,0,0,0,0
75213,-29,794,7520,-314.429,-69.800,7896.571,351.938,1178.642,294.649,14.572,363.143,-15.146,9.750,-119.263,16.715,0,0,0,0,0
75313,-677,969,8016,-320.586,-33.814,7901.557,354.449,1171.332,293.674,-61.572,359.857,49.858,25.102,-73.101,-9.757,0,0,0,0,0
75413,-18,701,8150,-314.329,-0.971,7900.557,355.866,1159.181,292.705,62.571,328.429,-10.000,14.175,-121.509,-9.684,0,0,0,0,0
75513,-514,1122,8368,-319.086,39.171,7912.657,356.277,1148.671,294.267,-47.571,401.429,121.001,4.114,-105.096,15.623,0,0,0,0,0
75613,3,1262,7604,-312.743,85.386,7904.700,357.999,1131.738,294.974,63.429,462.143,-79.570,17.213,-169.330,7.070,0,0,0,0,0
75713,-642,1234,7812,-317.943,132.414,7898.343,360.094,1109.881,292.094,-52.000,470.286,-63.574,20.950,-218.569,-28.799,0,0,0,0,0
75813,-415,1598,8227,-319.171,183.886,7896.529,360.276,1092.981,289.643,-12.285,514.714,-18.140,1.823,-169.003,-24.517,0,0,0,0,0
75913,-750,692,8739,-317.429,217.357,7912.843,357.885,1071.951,304.113,17.429,334.714,163.140,-23.914,-210.304,144.699,0,0,0,0,0
76013,-8,-517,8011,-317.100,234.043,7924.800,358.158,1051.097,291.000,3.286,166.857,119.570,2.733,-208.539,-131.131,0,0,0,0,0
76113,-354,-455,8544,-329.786,252.986,7946.986,343.202,1026.267,277.865,-126.857,189.429,221.860,-149.561,-248.303,-131.346,0,0,0,0,0
76213,-555,92,6960,-325.843,281.214,7935.628,338.980,993.759,300.782,39.428,282.286,-113.574,-42.214,-325.073,229.169,0,0,0,0,0
76313,-555,562,6623,-328.486,315.614,7918.171,340.034,960.654,338.617,-26.429,344.000,-174.570,10.535,-331.048,378.357,0,0,0,0,0
76413,-436,172,7732,-333.500,351.257,7911.628,338.993,906.874,337.726,-50.143,356.429,-65.430,-10.413,-537.806,-8.919,0,0,0,0,0
76513,-50,97,6988,-327.543,377.300,7896.514,340.256,872.366,354.625,59.572,260.428,-151.143,12.635,-345.078,168.998,0,0,0,0,0
76613,-737,61,9064,-336.214,413.429,7908.914,342.836,803.426,379.204,-86.714,361.286,123.999,25.800,-689.403,245.788,0,0,0,0,0
76713,-316,2534,7964,-343.757,476.257,7909.914,336.440,794.790,379.256,-75.428,628.286,10.000,-63.957,-86.361,0.516,0,0,0,0,0
76813,-678,2678,7533,-343.657,547.157,7899.471,336.340,766.156,379.426,1.000,709.000,-104.429,-1.005,-286.342,1.705,0,0,0,0,0
76913,107,1075,6534,-342.086,564.229,7870.400,338.180,764.411,404.167,15.714,170.714,-290.713,18.399,-17.443,247.411,0,0,0,0,0
77013,-1307,162,7626,-344.914,559.186,7867.771,345.335,765.882,405.149,-28.286,-50.428,-26.284,71.551,14.711,9.814,0,0,0,0,0
77113,605,543,8308,-339.471,562.757,7875.829,357.062,765.215,408.204,54.428,35.714,80.571,117.272,-6.669,30.550,0,0,0,0,0
77213,-1568,2004,9081,-354.629,582.743,7894.500,385.258,784.094,432.299,-151.571,199.857,186.714,281.961,188.788,240.955,0,0,0,0,0
77313,-239,1888,7431,-344.714,612.257,7887.357,379.128,793.728,435.754,99.143,295.143,-71.431,-61.305,96.334,34.549,0,0,0,0,0
77413,-408,1262,7060,-348.829,635.900,7873.443,378.228,788.060,446.273,-41.143,236.429,-139.141,-8.993,-56.672,105.190,0,0,0,0,0
77513,183,379,7862,-340.157,640.200,7869.643,383.329,785.823,445.221,86.714,43.000,-37.998,51.010,-22.378,-10.525,0,0,0,0,0
77613,-930,685,8306,-347.371,646.900,7879.600,389.560,784.175,447.070,-72.143,67.000,99.570,62.303,-16.477,18.497,0,0,0,0,0
77713,-218,1582,8773,-339.614,670.843,7890.100,386.641,786.770,459.136,77.571,239.428,105.000,-29.183,25.948,120.653,0,0,0,0,0
77813,-415,1321,8239,-340.714,687.886,7898.372,386.745,787.747,460.130,-11.000,170.429,82.715,1.034,9.771,9.945,0,0,0,0,0
77913,31,1263,7479,-336.943,708.043,7895.400,389.057,784.144,462.153,37.714,201.571,-29.717,23.123,-36.025,20.226,0,0,0,0,0
78013,-176,796,7989,-340.557,717.371,7898.286,386.360,781.246,462.098,-36.143,93.286,28.857,-26.965,-28.986,-0.553,0,0,0,0,0
78113,-795,1715,8909,-344.186,739.857,7914.029,389.407,786.963,477.243,-36.286,224.857,157.432,30.462,57.177,151.453,0,0,0,0,0
78213,-900,1925,6995,-347.286,766.057,7902.971,392.939,795.409,489.289,-31.000,262.000,-110.576,35.326,84.457,120.464,0,0,0,0,0
78313,18,1185,7310,-341.386,780.829,7897.071,395.272,793.448,493.892,59.000,147.714,-58.999,23.329,-19.606,46.029,0,0,0,0,0
78413,-841,1831,6769,-353.300,805.986,7883.929,397.576,798.414,511.192,-119.143,251.572,-131.426,23.039,49.653,173.000,0,0,0,0,0
78513,-573,1259,8497,-364.543,821.000,7898.029,392.470,796.908,514.286,-112.429,150.143,141.001,-51.065,-15.060,30.942,0,0,0,0,0
78613,-726,1986,7507,-371.700,847.486,7892.971,394.423,804.343,516.362,-71.572,264.857,-50.576,19.533,74.355,20.756,0,0,0,0,0
78713,702,1052,8721,-352.600,859.586,7908.271,413.138,800.951,524.735,191.000,121.000,153.003,187.154,-33.925,83.732,0,0,0,0,0
78813,-1894,1351,8189,-369.157,880.886,7913.329,449.735,793.879,525.710,-165.571,213.000,50.571,365.969,-70.716,9.744,0,0,0,0,0
78913,-390,-34,7710,-369.514,882.129,7912.329,449.742,792.377,526.029,-3.571,12.429,-10.000,0.065,-15.027,3.192,0,0,0,0,0
79013,-647,-278,8667,-380.029,877.614,7925.843,447.497,798.053,533.045,-105.143,-45.143,135.142,-22.446,56.761,70.161,0,0,0,0,0
79113,-702,-560,9614,-387.714,870.971,7947.886,448.340,807.994,569.265,-76.857,-66.428,220.430,8.430,99.416,362.200,0,0,0,0,0
79213,-615,334,6858,-394.129,876.157,7933.757,448.334,803.353,583.684,-64.143,51.857,-141.284,-0.060,-46.411,144.189,0,0,0,0,0
79313,-244,-71,7739,-387.814,874.157,7930.757,447.290,805.532,584.137,63.143,-20.000,-30.000,-10.439,21.783,4.534,0,0,0,0,0
79413,-798,142,8069,-401.971,877.329,7933.000,444.356,802.199,584.362,-141.571,31.714,22.427,-29.339,-33.328,2.250,0,0,0,0,0
79513,-699,-337,9299,-411.157,874.757,7948.914,443.755,805.791,605.785,-91.857,-25.714,159.141,-6.011,35.920,214.227,0,0,0,0,0
79613,-270,187,7463,-417.171,879.314,7937.686,438.922,800.972,607.401,-60.143,45.571,-112.285,-48.332,-48.190,16.159,0,0,0,0,0
79713,-497,313,7671,-419.929,884.771,7928.628,438.809,795.776,606.582,-27.571,54.572,-90.571,-1.134,-51.952,-8.184,0,0,0,0,0
79813,343,680,7148,-407.714,892.671,7922.414,447.881,790.945,612.293,122.143,79.000,-62.144,90.729,-48.315,57.105,0,0,0,0,0
79913,-563,3206,4535,-414.114,938.429,7869.186,446.853,829.845,730.995,-64.000,457.571,-532.285,-10.288,389.000,1187.024,0,0,0,0,1
80013,-2061,2187,7965,-440.243,970.486,7866.900,487.101,834.104,730.442,-261.286,320.571,-22.856,402.479,42.595,-5.536,0,0,0,0,0
80113,791,-320,7481,-427.786,966.100,7858.814,506.877,840.050,731.535,124.572,-43.857,-80.854,197.768,59.454,10.935,0,0,0,0,0
80213,-764,1188,6569,-423.486,980.086,7834.014,502.713,835.466,745.286,43.000,139.857,-248.003,-41.642,-45.840,137.505,0,0,0,0,0
80313,-445,805,9262,-426.786,990.471,7846.229,502.085,828.678,761.408,-33.000,103.857,122.144,-6.282,-67.873,161.223,0,0,0,0,0
80413,508,443,7920,-406.657,962.243,7846.171,510.837,813.044,761.402,201.286,-282.286,-0.571,87.524,-156.348,-0.057,0,0,0,0,0
80513,-1956,1410,7462,-429.714,963.643,7843.557,542.822,813.729,762.402,-230.572,14.000,-26.143,319.847,6.852,9.996,0,0,0,0,0
80613,-1296,1835,5829,-444.714,964.357,7819.700,551.969,814.471,798.104,-150.000,7.142,-238.569,91.466,7.423,357.017,0,0,0,0,0
80713,1000,1205,6628,-421.371,963.786,7799.271,577.434,814.288,809.956,233.429,-5.714,-204.287,254.651,-1.831,118.524,0,0,0,0,0
80813,-741,1297,8117,-435.229,965.814,7803.257,573.284,814.938,810.823,-138.571,20.286,39.858,-41.498,6.505,8.668,0,0,0,0,0
80913,-100,1156,7770,-424.686,960.443,7806.986,572.565,812.424,810.061,105.429,-53.714,37.285,-7.184,-25.142,-7.620,0,0,0,0,0
81013,-870,451,7985,-431.414,946.286,7810.357,574.987,812.544,810.303,-67.286,-141.572,33.711,24.210,1.196,2.427,0,0,0,0,0
81113,1114,210,7126,-411.614,921.757,7796.057,603.302,808.474,813.416,198.000,-245.286,-142.998,283.153,-40.698,31.125,0,0,0,0,0
81213,-1560,735,8500,-425.500,901.086,7803.143,618.203,794.363,817.347,-138.857,-206.714,70.859,149.016,-141.111,39.314,0,0,0,0,0
81313,-739,226,8808,-433.929,885.171,7822.243,618.398,796.566,824.949,-84.286,-159.142,190.996,1.949,22.033,76.015,0,0,0,0,0
81413,1843,35,7496,-406.943,876.557,7817.929,673.499,802.432,825.854,269.857,-86.143,-43.140,551.010,58.652,9.047,0,0,1,0,0
81513,-1868,666,8514,-426.414,883.957,7824.900,695.399,798.055,829.632,-194.714,74.000,69.712,219.001,-43.762,37.781,0,0,0,0,0
81613,-3,335,6558,-426.486,888.529,7799.857,695.356,793.971,840.961,-0.714,45.714,-250.430,-0.438,-40.847,113.291,0,0,0,0,0
81713,-58,-211,8063,-415.229,877.200,7795.800,694.851,803.859,838.994,112.571,-113.286,-40.571,-5.043,98.885,-19.667,0,0,0,0,0
81813,-1310,214,9238,-439.471,866.286,7812.214,696.042,807.594,855.644,-242.429,-109.143,164.146,11.904,37.353,166.502,0,0,0,0,0
81913,1522,50,6185,-415.186,838.714,7788.514,733.396,802.027,877.141,242.857,-275.714,-237.002,373.546,-55.671,214.971,0,0,0,0,0
82013,-1491,567,8205,-433.629,828.357,7795.457,743.910,800.787,878.486,-184.429,-103.572,69.429,105.139,-12.401,13.447,0,0,0,0,0
82113,375,-475,9580,-418.086,806.443,7821.057,749.258,815.038,903.646,155.428,-219.142,256.001,53.474,142.512,251.599,0,0,0,0,0
82213,-615,-266,9100,-426.457,791.300,7843.628,748.136,824.916,915.499,-83.714,-151.429,225.713,-11.212,98.777,118.531,0,0,0,0,0
82313,-1067,-265,7710,-432.029,773.671,7839.257,751.426,834.065,915.396,-55.714,-176.285,-43.711,32.900,91.488,-1.029,0,0,0,0,0
82413,-1864,505,7219,-458.400,770.871,7825.957,768.629,834.633,917.546,-263.714,-28.000,-133.003,172.028,5.681,21.494,0,0,0,0,0
82513,637,57,7508,-441.957,755.657,7813.671,779.498,837.795,915.962,164.428,-152.142,-122.856,108.692,31.615,-15.839,0,0,0,0,0
82613,-1451,128,7311,-462.729,739.457,7809.486,786.704,838.810,917.578,-207.714,-162.000,-41.855,72.056,10.157,16.166,0,0,0,0,0
82713,834,-564,8896,-441.643,713.771,7824.971,801.262,850.718,926.593,210.857,-256.857,154.854,145.581,119.072,90.147,0,0,0,0,0
82813,-1532,-484,9735,-457.600,684.029,7846.514,811.628,855.664,952.848,-159.572,-297.429,215.430,103.661,49.469,262.548,0,0,0,0,0
82913,-326,-434,7654,-451.543,667.943,7831.014,811.005,865.886,947.010,60.572,-160.857,-155.000,-6.229,102.217,-58.373,0,0,0,0,0
83013,1044,-382,6047,-436.514,669.871,7802.957,828.641,863.391,970.075,150.286,19.285,-280.571,176.354,-24.947,230.649,0,0,0,0,0
83113,-1374,-1219,11889,-451.086,658.957,7850.743,835.997,882.167,1081.401,-145.714,-109.142,477.856,73.564,187.755,1113.259,0,0,0,0,0
83213,-4265,1019,7104,-504.086,672.200,7852.800,950.646,880.513,1079.841,-530.000,132.429,20.571,1146.485,-16.540,-15.607,0,0,0,0,0
83313,-308,-1753,7785,-500.557,639.129,7869.400,950.909,926.315,1069.692,35.286,-330.714,166.001,2.629,458.017,-101.490,0,0,0,0,0
83413,1551,-1376,6834,-472.171,617.014,7856.571,981.575,955.229,1076.625,283.857,-221.143,-128.286,306.660,289.146,69.332,0,0,0,0,0
83513,-3283,-967,10003,-518.357,601.814,7899.643,1035.219,971.706,1101.047,-461.857,-152.000,430.718,536.440,164.771,244.224,0,0,0,0,0
83613,-1046,-2075,9474,-522.771,571.300,7905.500,1036.799,1020.522,1108.292,-44.143,-305.143,58.569,15.804,488.159,72.451,0,0,0,0,0
83713,-543,-560,6760,-526.014,527.100,7888.300,1036.502,1001.381,1116.563,-32.429,-442.000,-172.002,-2.969,-191.411,82.705,0,0,0,0,0
83813,-570,-646,6776,-524.471,479.614,7877.486,1036.355,976.769,1123.595,15.428,-474.857,-108.140,-1.470,-246.121,70.325,0,0,0,0,0
83913,-789,-1177,8333,-537.271,447.443,7903.186,1034.007,993.571,1113.097,-128.000,-321.714,256.997,-23.478,168.022,-104.984,0,0,0,0,0
84013,-1150,-387,8435,-535.029,439.600,7914.743,1032.505,997.951,1114.358,22.429,-78.429,115.571,-15.028,43.794,12.612,0,0,0,0,0
84113,670,-472,8133,-534.100,425.100,7912.243,1033.558,1003.700,1113.669,9.286,-145.000,-25.000,10.535,57.498,-6.888,0,0,0,0,0
84213,-1353,-10,7770,-531.029,396.329,7893.514,1030.797,986.751,1104.845,30.714,-287.714,-187.285,-27.611,-169.493,-88.240,0,0,0,0,0
84313,540,-383,7109,-519.900,363.886,7888.914,1038.069,974.430,1107.429,111.285,-324.429,-46.001,72.721,-123.206,25.834,0,0,0,0,0
84413,-1489,-174,8251,-535.343,343.371,7905.929,1044.311,970.414,1103.706,-154.428,-205.143,170.146,62.423,-40.161,-37.230,0,0,0,0,0
84513,297,-428,8081,-533.714,331.843,7909.057,1045.519,974.707,1103.887,16.285,-115.286,31.284,12.073,42.924,1.815,0,0,0,0,0
84613,-1297,62,8241,-538.957,322.943,7908.128,1048.409,974.286,1103.580,-52.429,-89.000,-9.287,28.903,-4.211,-3.071,0,0,0,0,0
84713,207,-338,7537,-532.886,295.514,7890.471,1051.476,965.440,1099.481,60.714,-274.286,-176.572,30.671,-88.455,-40.986,0,0,0,0,0
84813,-750,272,7954,-537.671,280.529,7886.400,1051.691,957.515,1098.710,-47.857,-149.857,-40.713,2.150,-79.252,-7.709,0,0,0,0,0
84913,-54,1155,7984,-538.886,278.986,7893.614,1051.083,956.016,1097.669,-12.143,-15.428,72.144,-6.084,-14.986,-10.414,0,0,0,0,0
85013,-1378,563,8827,-556.057,275.657,7905.586,1054.826,954.615,1103.200,-171.714,-33.286,119.717,37.433,-14.012,55.310,0,0,0,0,0
85113,-24,265,7130,-545.043,254.943,7880.171,1056.297,938.758,1100.279,110.143,-207.143,-254.146,14.717,-158.569,-29.210,0,0,0,0,0
85213,-680,1043,8528,-541.900,242.343,7902.071,1055.564,922.028,1097.696,31.428,-126.000,218.999,-7.339,-167.301,-25.829,0,0,0,0,0
85313,-111,99,8576,-543.743,226.829,7920.157,1054.697,915.147,1098.221,-18.428,-155.143,180.859,-8.668,-68.809,5.251,0,0,0,0,0
85413,-135,321,6841,-533.657,205.257,7921.186,1055.182,894.647,1097.176,100.857,-215.714,10.283,4.849,-205.001,-10.452,0,0,0,0,0
85513,-1095,443,8038,-541.114,193.600,7914.628,1057.276,886.117,1095.085,-74.571,-116.571,-65.571,20.940,-85.306,-20.914,0,0,0,0,0
85613,-365,-36,8214,-535.957,164.714,7924.729,1057.242,859.782,1094.539,51.571,-288.857,101.001,-0.339,-263.344,-5.459,0,0,0,0,0
85713,182,-281,8903,-543.386,145.671,7927.329,1050.322,854.666,1096.641,-74.286,-190.428,26.001,-69.202,-51.161,21.024,0,0,0,0,0
85813,2864,-643,7587,-475.414,117.186,7918.729,1112.815,847.215,1096.916,679.715,-284.857,-86.001,624.933,-74.507,2.748,0,0,0,0,0
85913,2114,-99,11039,-439.643,116.257,7966.286,1154.452,847.416,1157.336,357.714,-9.286,475.571,416.372,2.007,604.203,0,0,0,0,0
86013,-3621,1540,7315,-482.129,142.229,7946.971,1214.465,862.657,1156.763,-424.857,259.714,-193.145,600.133,152.407,-5.736,0,0,0,0,0
86113,2160,-820,10216,-441.243,138.514,7955.571,1253.910,866.225,1171.271,408.857,-37.143,86.001,394.448,35.680,145.084,0,0,0,0,0
86213,1809,851,7867,-406.614,145.900,7969.986,1281.794,870.056,1163.860,346.286,73.857,144.146,278.842,38.308,-74.109,0,0,0,0,0
86313,-381,1217,6689,-408.571,164.300,7954.986,1281.649,878.849,1173.467,-19.572,184.000,-150.000,-1.450,87.933,96.071,0,0,0,0,0
86413,-1224,1236,6595,-414.657,179.929,7933.929,1284.492,887.993,1184.406,-60.857,156.286,-210.571,28.429,91.443,109.391,0,0,0,0,0
86513,622,1731,6902,-395.786,209.471,7899.686,1289.869,904.550,1179.084,188.714,295.429,-342.432,53.765,165.568,-53.228,0,0,0,0,0
86613,-1668,2037,8246,-415.757,235.900,7910.872,1298.560,930.170,1178.602,-199.714,264.286,111.860,86.915,256.205,-4.818,0,0,0,0,0
86713,-258,1019,6197,-412.343,245.986,7889.814,1298.656,934.768,1195.742,34.143,100.857,-210.571,0.959,45.975,171.401,0,0,0,0,0
86813,337,644,6965,-412.429,245.471,7887.200,1298.606,934.539,1197.560,-0.857,-5.143,-26.143,-0.498,-2.291,18.179,0,0,0,0,0
86913,-1701,867,8504,-428.686,212.057,7943.900,1307.483,867.499,1129.530,-162.571,-334.143,566.997,88.765,-670.399,-680.302,0,0,0,0,0
87013,737,-5,8004,-388.714,180.743,7944.457,1299.716,834.582,1129.550,399.714,-313.143,5.571,-77.668,-329.170,0.199,0,0,0,0,0
87113,-1160,168,9173,-416.586,187.714,7968.628,1295.029,832.405,1137.449,-278.714,69.714,241.714,-46.865,-21.767,78.998,0,0,0,0,0
87213,-2168,57,9444,-436.643,171.557,8009.700,1311.028,823.764,1138.075,-200.571,-161.571,410.718,159.989,-86.409,6.259,0,0,0,0,0
87313,578,-871,7673,-422.029,147.614,7987.000,1316.544,829.343,1128.679,146.143,-239.429,-227.002,55.156,55.789,-93.966,0,0,0,0,0
87413,-1166,-11,8179,-445.943,141.129,7990.700,1314.635,828.783,1128.878,-239.143,-64.857,37.002,-19.086,-5.605,1.990,0,0,0,0,0
87513,-1316,-345,9911,-436.800,116.057,8025.686,1306.301,816.473,1149.707,91.429,-250.714,349.854,-83.345,-123.099,208.296,0,0,0,0,0
87613,-582,186,7036,-426.600,92.500,8042.929,1302.334,789.894,1125.427,102.000,-235.571,172.432,-39.673,-265.793,-242.797,0,0,0,0,0
87713,-1237,-499,8795,-458.557,68.157,8073.886,1294.357,781.445,1115.844,-319.571,-243.429,309.570,-79.767,-84.482,-95.830,0,0,0,0,0
87813,-361,-374,9689,-453.129,44.286,8096.343,1293.958,768.965,1132.185,54.286,-238.714,224.570,-3.993,-124.802,163.408,0,0,0,0,0
87913,-869,-78,6790,-464.114,26.657,8082.343,1294.177,757.334,1142.149,-109.857,-176.286,-140.000,2.198,-116.313,99.641,0,0,0,0,0
88013,-1141,105,6667,-467.986,21.714,8063.514,1295.790,755.675,1154.397,-38.714,-49.429,-188.286,16.129,-16.584,122.474,0,0,0,0,0
88113,-835,-593,8912,-495.829,10.243,8089.029,1282.368,758.819,1153.130,-278.429,-114.714,255.146,-134.221,31.431,-12.666,0,0,0,0,0
88213,-1213,-597,8103,-490.871,-8.786,8083.357,1278.911,757.105,1152.071,49.572,-190.286,-56.719,-34.572,-17.140,-10.593,0,0,0,0,0
88313,-625,-787,7697,-489.243,-23.257,8067.486,1278.667,762.143,1149.629,16.286,-144.714,-158.711,-2.444,50.385,-24.420,0,0,0,0,0
88413,-617,-1449,8473,-524.386,-44.457,8081.443,1247.510,780.643,1148.536,-351.429,-212.000,139.570,-311.566,184.998,-10.928,0,0,0,0,0
88513,-1234,-1006,7925,-515.329,-68.343,8073.029,1240.001,784.111,1147.493,90.572,-238.857,-84.141,-75.089,34.683,-10.427,0,0,0,0,0
88613,-697,-91,7274,-525.243,-74.429,8083.257,1238.639,782.609,1137.087,-99.143,-60.857,102.285,-13.622,-15.024,-104.064,0,0,0,0,0
88713,-780,-444,8747,-535.557,-77.757,8093.029,1237.711,783.677,1139.807,-103.143,-33.286,97.715,-9.281,10.685,27.196,0,0,0,0,0
88813,-1823,238,6732,-542.886,-77.414,8057.229,1243.779,783.810,1142.634,-73.286,3.429,-358.003,60.679,1.330,28.274,0,0,0,0,0
88913,-52,-228,7860,-565.371,-81.386,8081.157,1220.251,783.859,1120.500,-224.857,-39.714,239.287,-235.282,0.486,-221.338,0,0,0,0,0
89013,-264,83,6833,-547.843,-88.300,8061.557,1215.632,780.235,1130.121,175.286,-69.143,-196.001,-46.183,-36.236,96.206,0,0,0,0,0
89113,-1043,-287,6781,-568.100,-85.614,8021.571,1211.895,779.222,1125.194,-202.571,26.857,-399.858,-37.378,-10.129,-49.265,0,0,0,0,0
89213,-1184,-1209,11943,-576.229,-99.086,8062.186,1214.088,790.297,1211.395,-81.286,-134.714,406.143,21.932,110.749,862.008,0,0,0,0,0
89313,-3025,186,6245,-604.200,-92.643,8041.257,1247.177,790.757,1229.814,-279.714,64.429,-209.282,330.890,4.593,184.187,0,0,0,0,0
89413,153,190,9615,-575.386,-97.143,8075.486,1241.023,788.235,1239.755,288.143,-45.000,342.285,-61.537,-25.216,99.413,0,0,0,0,0
89513,-658,54,6152,-593.886,-97.186,8056.114,1232.435,788.227,1258.917,-185.000,-0.429,-193.716,-85.885,-0.081,191.616,0,0,0,0,0
89613,-2803,1183,7275,-613.200,-82.114,8055.600,1256.083,802.348,1259.228,-193.143,150.714,-5.142,236.484,141.211,3.116,0,0,0,0,0
89713,-2337,1389,10341,-658.500,-54.214,8076.243,1260.247,818.892,1284.428,-453.000,279.000,206.426,41.638,165.436,251.996,0,0,0,0,0
89813,-1018,429,6640,-651.157,-41.171,8032.029,1256.628,819.213,1279.829,73.428,130.429,-442.139,-36.187,3.217,-45.989,0,0,0,0,0
89913,-2069,739,7719,-676.057,-24.414,8032.957,1267.163,822.995,1279.578,-249.000,167.571,9.282,105.349,37.814,-2.513,0,0,0,0,0
90013,-975,461,8407,-704.900,-12.371,8066.671,1250.552,823.841,1257.712,-288.429,120.429,337.144,-166.108,8.467,-218.662,0,0,0,0,0
90113,496,-234,10501,-678.186,1.700,8046.843,1255.936,811.430,1207.222,267.143,140.714,-198.286,53.833,-124.112,-504.896,0,0,0,0,0
90213,-2912,939,7504,-658.857,0.557,8052.557,1210.164,810.052,1203.687,193.286,-11.429,57.144,-457.719,-13.785,-35.350,0,0,0,0,0
90313,-53,37,8697,-655.214,26.129,8065.586,1211.597,782.062,1205.654,36.428,255.714,130.288,14.335,-279.898,19.675,0,0,0,0,0
90413,1426,651,7317,-657.000,55.086,8072.486,1208.432,766.991,1199.955,-17.857,289.571,68.999,-31.649,-150.709,-56.993,0,0,0,0,0
90513,-1270,1503,7013,-628.243,90.371,8029.771,1168.904,775.922,1183.580,287.571,352.857,-427.144,-395.278,89.315,-163.749,0,0,0,0,0
90613,-455,1114,7134,-619.800,135.929,7996.343,1167.990,740.247,1175.334,84.429,455.571,-334.287,-9.139,-356.754,-82.461,0,0,0,0,0
90713,-1416,1688,5835,-632.271,168.043,7983.128,1171.759,757.911,1194.208,-124.714,321.143,-132.144,37.681,176.638,188.744,0,0,0,0,0
90813,1164,800,7186,-607.500,188.700,7988.986,1190.984,755.143,1189.269,247.714,206.571,58.574,192.257,-27.680,-49.396,0,0,0,0,0
90913,-1279,1122,9516,-614.500,221.543,8005.886,1193.468,744.957,1202.371,-70.000,328.429,168.999,24.836,-101.859,131.018,0,0,0,0,0
91013,1403,864,8947,-578.029,239.414,8013.200,1215.354,745.149,1206.509,364.714,178.714,73.145,218.862,1.924,41.384,0,0,0,0,0
91113,-1345,1687,7932,-606.814,270.257,8010.329,1209.301,759.606,1206.460,-287.857,308.428,-28.716,-60.529,144.570,-0.494,0,0,0,0,0
91213,-514,731,8116,-594.829,280.843,8015.271,1206.000,760.789,1206.174,119.857,105.857,49.429,-33.018,11.829,-2.860,0,0,0,0,0
91313,-1417,760,9315,-622.786,297.171,8046.786,1202.045,758.629,1210.893,-279.572,163.286,315.142,-39.546,-21.601,47.190,0,0,0,0,0
91413,1115,389,8110,-585.586,305.214,8044.771,1214.887,756.573,1210.668,372.000,80.429,-20.142,128.422,-20.565,-2.242,0,0,0,0,0
91513,-1076,1168,8067,-605.200,328.014,8044.571,1211.558,758.180,1210.664,-196.143,228.000,-2.002,-33.286,16.071,-0.046,0,0,0,0,0
91613,754,614,8086,-575.900,335.900,8042.357,1219.250,758.243,1210.444,293.000,78.857,-22.144,76.914,0.630,-2.195,0,0,0,0,0
91713,-937,579,9124,-592.243,349.000,8065.029,1216.310,754.398,1215.618,-163.428,131.000,226.719,-29.399,-38.445,51.732,0,0,0,0,0
91813,-44,554,7786,-582.157,353.029,8062.628,1217.886,754.729,1216.000,100.857,40.286,-24.004,15.762,3.310,3.827,0,0,0,0,0
91913,599,562,6280,-572.829,344.557,8038.286,1224.379,748.986,1234.250,93.286,-84.714,-243.428,64.933,-57.430,182.495,0,0,0,0,0
92013,-208,74,8669,-556.114,337.571,8036.029,1221.255,749.197,1232.949,167.143,-69.857,-22.568,-31.239,2.104,-13.007,0,0,0,0,0
92113,731,-256,8660,-545.329,330.129,8057.886,1229.216,752.462,1230.252,107.857,-74.429,218.569,79.601,32.648,-26.968,0,0,0,0,0
92213,742,67,8622,-525.014,316.186,8059.229,1238.537,748.153,1230.816,203.143,-139.429,13.428,93.214,-43.083,5.636,0,0,0,0,0
92313,-1479,781,7151,-544.557,325.929,8038.872,1242.636,749.701,1233.881,-195.428,97.429,-203.569,40.991,15.474,30.653,0,0,0,0,0
92413,1386,-714,6659,-522.829,311.143,8036.271,1262.743,759.790,1236.591,217.286,-147.857,-26.001,201.066,100.895,27.101,0,0,0,0,0
92513,767,-64,10547,-496.229,303.900,8072.114,1270.000,760.915,1271.977,266.000,-72.429,358.428,72.578,11.244,353.861,0,0,0,0,0
92613,-756,281,8573,-501.814,308.429,8077.243,1270.271,759.821,1273.262,-55.857,45.286,51.284,2.703,-10.938,12.849,0,0,0,0,0
92713,1185,-496,6827,-487.486,305.357,8047.586,1283.492,762.626,1277.852,143.286,-30.714,-296.567,132.208,28.057,45.897,0,0,0,0,0
92813,-906,-343,8299,-541.343,309.643,8057.757,1219.216,758.115,1276.979,-538.571,42.857,101.714,-642.751,-45.119,-8.730,0,0,0,0,0
92913,-1431,634,7150,-591.986,320.114,8002.200,1180.891,757.460,1229.793,-506.429,104.714,-555.571,-383.250,-6.546,-471.855,0,0,0,0,0
93013,-332,403,7795,-545.000,303.871,8009.057,1123.473,743.183,1227.278,469.857,-162.429,68.569,-574.185,-142.768,-25.153,0,0,0,0,0
93113,-312,-780,7611,-580.314,304.443,7971.843,1075.728,742.333,1198.962,-353.143,5.714,-372.144,-477.446,-8.497,-283.160,0,0,0,0,0
93213,631,-798,7544,-597.143,280.886,7967.229,1047.051,750.732,1199.978,-168.286,-235.572,-46.143,-286.777,83.990,10.160,0,0,0,0,0
93313,-1892,-118,8055,-618.729,261.814,7986.743,1057.891,743.633,1190.099,-215.857,-190.714,195.142,108.407,-70.995,-98.793,0,0,0,0,0
93413,8,-2372,9289,-601.129,210.271,8025.229,1057.923,797.418,1188.028,176.000,-515.429,384.858,0.321,537.849,-20.709,0,1,0,0,0
93513,-1178,-988,6164,-626.843,171.429,8014.686,1049.725,788.569,1201.151,-257.142,-388.428,-105.430,-81.985,-88.487,131.232,0,0,0,0,0
93613,599,-2014,7536,-594.457,113.557,8004.543,1052.072,798.124,1202.152,323.857,-578.714,-101.426,23.466,95.554,10.012,0,0,0,0,0
93713,-1224,-2163,9834,-608.257,68.100,8056.500,1053.902,835.023,1201.503,-138.000,-454.571,519.570,18.302,368.984,-6.492,0,0,0,0,0
93813,1411,-2591,7941,-592.914,21.886,8070.443,1075.155,889.607,1194.398,153.428,-462.143,139.429,212.531,545.844,-71.056,0,0,0,0,0
93913,-687,-1945,7315,-578.429,-18.286,8053.457,1066.927,913.702,1196.564,144.857,-401.714,-169.858,-82.275,240.943,21.661,0,0,0,0,0
94013,300,-2111,6737,-584.671,-48.371,8035.357,1060.471,946.840,1206.715,-62.429,-300.857,-181.001,-64.563,331.387,101.509,0,0,0,0,0
94113,197,-2279,7644,-565.286,-83.329,8013.514,1062.178,982.699,1199.742,193.857,-349.571,-218.428,17.074,358.587,-69.722,0,0,0,0,0
94213,-602,-2332,7530,-542.914,-117.457,7986.171,1044.531,1018.080,1188.588,223.714,-341.286,-273.428,-176.469,353.811,-111.543,0,0,0,0,0
94313,-223,-2034,7796,-554.357,-134.071,7987.929,1036.546,1039.506,1188.215,-114.428,-166.143,17.573,-79.852,214.259,-3.735,0,0,0,0,0
94413,667,-2351,9116,-528.171,-167.500,8001.314,1043.891,1072.124,1195.547,261.857,-334.286,133.857,73.445,326.180,73.322,0,0,0,0,0
94513,-272,-2167,8431,-513.257,-193.529,7980.171,1039.979,1097.924,1174.489,149.143,-260.286,-211.431,-39.117,257.997,-210.576,0,0,0,0,0
94613,-353,-1097,8085,-509.986,-211.857,7995.157,1040.118,1102.136,1169.026,32.714,-183.286,149.858,1.388,42.123,-54.631,0,0,0,0,0
94713,575,-455,8039,-484.100,-211.229,7984.357,1044.242,1101.985,1165.072,258.857,6.286,-108.003,41.244,-1.514,-39.539,0,0,0,0,0
94813,-267,-114,7583,-482.757,-207.514,7954.271,1044.460,1101.868,1147.727,13.429,37.143,-300.854,2.178,-1.168,-173.448,0,0,0,0,0
94913,114,-381,7557,-468.714,-211.843,7965.229,1045.780,1101.946,1140.196,140.428,-43.286,109.570,13.199,0.779,-75.311,0,0,0,0,0
95013,-1301,592,8391,-471.000,-204.886,7989.857,1047.420,1105.456,1130.466,-22.857,69.571,246.284,16.401,35.101,-97.299,0,0,0,0,0
95113,178,713,8436,-456.529,-186.229,7983.057,1049.287,1109.761,1126.323,144.714,186.571,-67.998,18.674,43.048,-41.433,0,0,0,0,0
95213,254,1024,9278,-435.571,-163.071,7999.843,1048.619,1117.831,1136.693,209.571,231.572,167.856,-6.683,80.702,103.702,0,0,0,0,0
95313,-273,-521,8221,-430.543,-159.271,8007.329,1048.543,1116.154,1136.399,50.286,38.000,74.858,-0.764,-16.768,-2.938,0,0,0,0,0
95413,343,-15,8141,-416.829,-138.786,8002.586,1052.286,1105.403,1135.138,137.143,204.857,-47.427,37.429,-107.515,-12.612,0,0,0,0,0
95513,-1854,1787,7592,-425.686,-98.886,7997.829,1061.694,1123.637,1136.151,-88.571,399.000,-47.573,94.081,182.344,10.125,0,0,0,0,0
95613,184,147,7808,-413.100,-95.486,8005.457,1063.623,1124.016,1133.053,125.857,34.000,76.284,19.294,3.787,-30.973,0,0,0,0,0
95713,-1594,1182,7755,-424.729,-72.257,7991.286,1071.988,1133.336,1129.889,-116.286,232.286,-141.714,83.645,93.202,-31.639,0,0,0,0,0
95813,186,1098,9049,-396.029,-59.971,8024.386,1061.005,1141.266,1126.447,287.000,122.857,331.001,-109.828,79.304,-34.426,0,0,0,0,0
95913,180,394,7582,-392.714,-51.086,8020.414,1062.436,1142.344,1127.509,33.143,88.857,-39.717,14.307,10.780,10.621,0,0,0,0,0
96013,-857,877,7941,-401.186,-39.743,8036.243,1063.739,1147.549,1118.469,-84.714,113.429,158.286,13.035,52.052,-90.396,0,0,0,0,0
96113,-1876,1395,9159,-413.086,-15.714,8070.214,1075.447,1159.666,1115.939,-119.000,240.286,339.717,117.083,121.168,-25.306,0,0,0,0,0
96213,-10,90,8708,-396.314,2.843,8024.000,1072.444,1150.782,1017.217,167.714,185.571,-462.144,-30.029,-88.842,-987.220,0,0,0,0,0
96313,-523,451,8366,-360.571,6.629,8054.300,1024.878,1151.814,995.124,357.429,37.857,302.998,-475.668,10.317,-220.930,0,0,0,0,0
96413,-487,1116,7680,-369.714,19.857,8026.657,1023.108,1159.138,978.116,-91.429,132.286,-276.426,-17.692,73.243,-170.074,0,0,0,0,0
96513,-1500,760,7955,-381.743,29.943,8052.414,1031.344,1162.458,951.797,-120.286,100.857,257.568,82.352,33.198,-263.198,0,0,0,0,0
96613,836,128,8394,-329.757,14.871,8068.400,999.201,1154.221,947.995,519.857,-150.714,159.858,-321.431,-82.373,-38.018,0,0,0,0,0
96713,-1528,1002,7968,-318.200,9.343,8034.500,980.419,1148.538,907.694,115.571,-55.286,-338.999,-187.814,-56.823,-403.011,0,0,0,0,0
96813,-936,846,8392,-317.029,15.300,8059.529,979.631,1151.776,892.931,11.714,59.571,250.288,-7.881,32.380,-147.623,0,0,0,0,0
96913,-851,147,7943,-299.629,6.843,8062.729,958.957,1148.601,892.106,174.000,-84.571,31.997,-206.738,-31.759,-8.252,0,0,0,0,0
97013,-1158,-1594,8499,-302.243,-22.514,8064.043,961.042,1162.792,892.680,-26.143,-293.571,13.145,20.848,141.913,5.739,0,0,0,0,0
97113,-62,78,9459,-310.214,-18.057,8049.157,956.692,1162.571,860.009,-79.714,44.571,-148.857,-43.499,-2.213,-326.712,0,0,0,0,0
97213,25,-232,8482,-268.257,-34.786,8063.128,904.655,1157.091,858.982,419.572,-167.286,139.712,-520.372,-54.797,-10.263,0,0,0,0,0
97313,-361,-79,8349,-272.657,-36.443,8058.157,904.346,1157.070,856.302,-44.000,-16.571,-49.712,-3.087,-0.210,-26.801,0,0,0,0,0
97413,473,-1040,8284,-286.271,-60.600,8071.971,885.652,1160.114,852.023,-136.143,-241.571,138.140,-186.944,30.437,-42.789,0,0,0,0,0
97513,261,-1550,8528,-264.400,-104.214,8093.614,879.974,1157.897,844.054,218.714,-436.143,216.431,-56.775,-22.168,-79.698,0,0,0,0,0
97613,-939,-232,8381,-271.314,-123.443,8111.429,883.340,1148.646,836.740,-69.143,-192.286,178.145,33.656,-92.505,-73.137,0,0,0,0,0
97713,293,-1230,6228,-246.900,-165.129,8117.043,874.942,1135.018,822.647,244.143,-416.857,56.143,-83.976,-136.278,-140.933,0,0,0,0,0
97813,1031,-1386,7488,-248.800,-196.357,8121.357,872.016,1138.103,818.534,-19.000,-312.286,43.140,-29.265,30.845,-41.124,0,0,0,0,0
97913,-92,-2607,9701,-231.843,-249.629,8124.000,863.316,1162.165,823.317,169.572,-532.714,26.431,-87.003,240.623,47.831,0,0,0,0,0
98013,-27,-1620,9574,-252.271,-285.114,8132.957,841.020,1165.538,835.543,-204.286,-354.857,89.570,-222.958,33.730,122.252,0,0,0,0,0
98113,-401,-1464,8013,-238.786,-330.129,8134.114,830.897,1149.237,835.319,134.857,-450.143,11.572,-101.224,-163.009,-2.232,0,0,0,0,0
98213,590,-2362,7679,-223.014,-374.314,8127.872,835.986,1166.914,837.062,157.714,-441.857,-62.427,50.884,176.763,17.432,0,0,0,0,0
98313,-240,-1791,8100,-206.200,-410.757,8110.514,823.546,1170.747,824.773,168.143,-364.428,-173.574,-124.398,38.336,-122.891,0,0,0,0,0
98413,-537,-1609,7498,-229.800,-439.300,8101.771,808.887,1175.248,827.970,-236.000,-285.428,-87.427,-146.594,45.012,31.965,0,0,0,0,0
98513,-126,-1807,9500,-216.229,-481.800,8122.243,802.520,1170.136,844.409,135.714,-425.000,204.712,-63.669,-51.121,164.395,0,0,0,0,0
98613,-382,-2534,7724,-232.457,-526.771,8117.071,794.179,1187.521,845.723,-162.286,-449.714,-51.714,-83.412,173.851,13.135,0,0,0,0,0
98713,-231,-2656,6899,-222.371,-572.986,8085.286,789.637,1206.387,849.087,100.857,-462.143,-317.856,-45.416,188.658,33.638,0,0,0,0,0
98813,236,-3233,8101,-218.371,-627.086,8089.786,791.238,1239.105,848.323,40.000,-541.000,45.000,16.009,327.173,-7.637,0,0,0,0,0
98913,-553,-2663,7704,-234.829,-673.157,8110.128,786.029,1253.903,821.325,-164.571,-460.715,203.428,-52.085,147.981,-269.985,0,0,0,0,0
99013,-289,-3130,7096,-235.986,-718.929,8087.657,786.049,1283.913,827.224,-11.572,-457.714,-224.712,0.192,300.099,58.993,0,0,0,0,0
99113,-252,-3275,8250,-250.029,-762.057,8081.800,777.381,1317.894,824.598,-140.428,-431.285,-58.574,-86.678,339.818,-26.260,0,0,0,0,0
99213,-808,-3391,8540,-272.171,-811.457,8080.628,770.856,1350.304,823.888,-221.429,-494.000,-11.714,-65.245,324.093,-7.101,0,0,0,0,0
99313,-1202,-3072,7397,-268.214,-866.500,8084.143,765.342,1362.741,820.432,39.571,-550.428,35.146,-55.142,124.377,-34.555,0,0,0,0,0
99413,-1080,-3213,8874,-303.443,-902.200,8115.786,744.869,1390.725,807.469,-352.286,-357.000,316.426,-204.731,279.833,-129.637,0,0,0,0,0
99513,-752,-2471,8251,-325.143,-936.586,8082.986,735.435,1399.305,752.829,-217.000,-343.857,-327.998,-94.343,85.804,-546.400,0,0,0,0,0
99613,-465,-2016,6286,-320.986,-969.400,8050.314,733.808,1397.299,779.990,41.571,-328.143,-326.714,-16.265,-20.061,271.611,0,0,0,0,0
99713,-889,-2350,8170,-350.614,-995.886,8069.500,714.007,1405.621,766.056,-296.286,-264.857,191.855,-198.014,83.220,-139.336,0,0,0,0,0
